CTI3   

DESCRIPTOR "Argyll Calibration Target chart information 3"
ORIGINATOR "Argyll dispread"
CREATED "Tue May 26 14:13:25 2020"
DEVICE_CLASS "DISPLAY"
SINGLE_DIM_STEPS "25"
COMP_GREY_STEPS "73"
DARK_REGION_EMPHASIS "1.6"
COLOR_REP "RGB_XYZ"
TARGET_INSTRUMENT "X-Rite i1 DisplayPro, ColorMunki Display"
DISPLAY_TYPE_REFRESH "NO"
DISPLAY_TYPE_BASE_ID "1"
INSTRUMENT_TYPE_SPECTRAL "NO"
LUMINANCE_XYZ_CDM2 "62.651285 65.852767 71.510581"
NORMALIZED_TO_Y_100 "YES"
VIDEO_LUT_CALIBRATION_POSSIBLE "YES"

BEGIN_ARGYLL_COLPROF_ARGS
-M "N121X5-L06" -A "Lenovo Group Limited"
END_ARGYLL_COLPROF_ARGS

OBSERVER "1931_2"

NUMBER_OF_FIELDS 7
BEGIN_DATA_FORMAT
SAMPLE_ID RGB_R RGB_G RGB_B XYZ_X XYZ_Y XYZ_Z
END_DATA_FORMAT

NUMBER_OF_SETS 825
BEGIN_DATA
1 100.0000 100.0000 100.0000 95.13842 100.0000 108.5916
2 1.960800 1.960800 1.960800 0.649977 0.692522 0.821531
3 3.921600 3.921600 3.921600 0.798282 0.844502 0.995510
4 5.882400 5.882400 5.882400 0.973249 1.029005 1.159648
5 9.803900 9.803900 9.803900 1.447767 1.538373 1.725683
6 13.72600 13.72600 13.72600 2.108714 2.220881 2.541955
7 17.64700 17.64700 17.64700 3.005254 3.182799 3.608171
8 21.56900 21.56900 21.56900 4.109849 4.355336 4.885080
9 25.49000 25.49000 25.49000 5.473344 5.812338 6.451931
10 29.41200 29.41200 29.41200 6.972829 7.409524 8.152446
11 33.33300 33.33300 33.33300 8.874153 9.315730 10.04997
12 37.25500 37.25500 37.25500 11.23881 11.79941 12.86715
13 41.17600 41.17600 41.17600 13.94974 14.69516 15.88887
14 45.09800 45.09800 45.09800 16.88788 17.74378 19.25838
15 49.02000 49.02000 49.02000 20.11908 21.08852 22.90889
16 52.94100 52.94100 52.94100 23.34330 24.57429 26.82194
17 56.86300 56.86300 56.86300 27.30565 28.77308 31.09992
18 60.78400 60.78400 60.78400 31.33359 32.99816 35.84135
19 64.70600 64.70600 64.70600 35.63713 37.67939 40.98042
20 68.62700 68.62700 68.62700 41.04675 43.36703 47.19814
21 72.54900 72.54900 72.54900 46.38554 48.76397 53.11872
22 76.47100 76.47100 76.47100 52.02726 54.97115 59.94297
23 80.39200 80.39200 80.39200 58.05079 61.21988 66.87420
24 84.31400 84.31400 84.31400 64.53729 68.02481 73.80770
25 88.23500 88.23500 88.23500 71.54726 75.22909 81.89296
26 92.15700 92.15700 92.15700 78.70139 82.77345 89.98174
27 96.07800 96.07800 96.07800 86.84196 91.27337 99.22454
28 3.968300 0.000000 0.000000 0.682486 0.672550 0.764628
29 6.097600 0.000000 0.000000 0.770355 0.725061 0.779149
30 67.17430 81.52110 0.000000 38.21106 45.78924 11.80642
31 100.0000 100.0000 0.000000 74.30551 78.27236 17.96113
32 100.0000 100.0000 23.07680 75.54040 79.78524 21.90254
33 32.03750 43.57710 0.000000 9.340561 11.75100 3.705373
34 48.74850 50.94890 0.000000 16.63264 18.50949 5.354815
35 65.68580 57.39530 0.000000 26.10392 26.51401 7.183741
36 85.46130 61.96180 0.000000 41.00621 36.93215 9.209832
37 90.00440 79.56020 0.000000 53.42178 53.65530 13.02866
38 0.000000 83.35090 28.58150 23.68479 39.24787 15.54547
39 29.33380 82.86330 100.0000 45.04473 59.58309 100.5980
40 0.000000 69.34120 100.0000 35.05947 46.04844 97.06022
41 0.000000 82.77920 100.0000 42.09816 57.74533 100.0350
42 18.51850 0.000000 0.000000 1.784868 1.331891 0.934808
43 21.42860 0.000000 0.000000 2.147400 1.548487 0.988166
44 24.50980 0.000000 0.000000 2.537098 1.779195 1.045885
45 27.77780 0.000000 0.000000 3.102512 2.115540 1.127873
46 31.25000 0.000000 0.000000 3.871520 2.571922 1.234815
47 34.94620 0.000000 0.000000 4.724073 3.076156 1.353156
48 38.88890 0.000000 0.000000 5.780487 3.701853 1.498405
49 43.10350 0.000000 0.000000 7.165804 4.521522 1.683549
50 47.61910 0.000000 0.000000 8.715908 5.437513 1.889112
51 52.46910 0.000000 0.000000 10.61908 6.560503 2.129697
52 57.69230 0.000000 0.000000 12.67603 7.772331 2.383199
53 63.33330 0.000000 0.000000 14.96722 9.120608 2.659160
54 69.44440 0.000000 0.000000 18.71757 11.32824 3.087733
55 76.08700 0.000000 0.000000 22.65620 13.64561 3.508920
56 83.33330 0.000000 0.000000 27.38133 16.42444 3.983271
57 91.26980 0.000000 0.000000 34.31236 20.46464 4.591606
58 100.0000 30.19440 34.04400 47.09032 31.24532 14.40785
59 100.0000 100.0000 90.07570 90.25589 93.99097 88.65246
60 100.0000 100.0000 100.0000 95.09032 99.88651 108.5904
61 20.14650 28.39430 100.0000 24.03767 25.34850 92.26349
62 77.08920 61.20270 100.0000 55.03427 53.93598 99.19600
63 0.000000 10.68380 0.000000 0.895605 1.206740 0.920482
64 0.000000 13.15790 0.000000 1.072053 1.515366 1.007489
65 0.000000 15.76580 0.000000 1.220755 1.789685 1.081981
66 0.000000 18.51850 0.000000 1.437939 2.173930 1.190434
67 0.000000 21.42860 0.000000 1.769796 2.759086 1.351075
68 0.000000 24.50980 0.000000 2.062498 3.281782 1.492279
69 14.71020 24.53850 0.000000 2.967755 3.895073 1.657300
70 33.19080 26.66570 0.000000 6.253855 6.135919 2.212960
71 100.0000 67.61490 22.18170 57.75011 50.00953 14.88814
72 100.0000 100.0000 100.0000 95.09032 99.88651 108.5904
73 0.000000 27.77780 0.000000 2.573838 4.170836 1.733629
74 0.000000 43.10350 0.000000 5.536865 9.322193 3.100551
75 0.000000 47.61910 0.000000 6.702493 11.34525 3.628261
76 0.000000 52.46910 0.000000 8.332742 14.15655 4.351258
77 0.000000 57.69230 0.000000 9.976873 16.96462 5.067433
78 0.000000 63.33330 0.000000 12.11490 20.63015 5.982504
79 0.000000 69.44440 0.000000 14.70106 25.11967 7.087110
80 0.000000 83.33330 0.000000 21.80241 37.04245 9.906131
81 0.000000 91.26980 0.000000 26.56451 45.00756 11.70350
82 0.000000 100.0000 0.000000 31.36126 53.08572 13.43866
83 84.32130 100.0000 0.000000 60.09452 70.01373 16.85518
84 83.78140 100.0000 24.31840 61.06543 71.31203 21.05787
85 56.54750 100.0000 64.45430 50.77692 67.20620 47.21981
86 64.86930 100.0000 78.56320 58.69550 73.52946 66.85832
87 89.03580 100.0000 81.74230 76.23330 84.26909 73.40818
88 0.000000 0.000000 10.68380 0.726691 0.737790 1.574331
89 0.000000 0.000000 13.15790 0.823188 0.813832 2.009519
90 0.000000 0.000000 15.76580 0.902294 0.880978 2.391344
91 0.000000 0.000000 18.51850 1.051172 1.004991 3.090026
92 0.000000 0.000000 21.42860 1.223639 1.151480 3.932918
93 0.000000 0.000000 24.50980 1.378947 1.285446 4.680561
94 0.000000 0.000000 27.77780 1.644163 1.510403 5.941664
95 0.000000 0.000000 31.25000 1.894932 1.726108 7.140499
96 0.000000 0.000000 38.88890 2.697613 2.420379 10.95262
97 0.000000 0.000000 43.10350 3.282298 2.931226 13.69807
98 0.000000 0.000000 47.61910 3.871859 3.448967 16.48289
99 0.000000 0.000000 52.46910 4.756564 4.239119 20.68364
100 0.000000 0.000000 57.69230 5.722004 5.112873 25.23107
101 0.000000 0.000000 63.33330 6.944759 6.218203 30.88895
102 0.000000 0.000000 69.44440 8.454448 7.629021 37.96403
103 0.000000 0.000000 76.08700 10.47618 9.554418 47.27138
104 0.000000 0.000000 83.33330 12.78488 11.81132 57.86566
105 0.000000 0.000000 91.26980 16.00643 15.22434 72.30335
106 68.13010 0.000000 100.0000 37.79607 30.86631 93.30016
107 76.94070 17.56710 100.0000 44.03471 35.62528 94.43908
108 78.00920 40.79640 100.0000 49.08862 42.93963 96.21624
109 1.938000 1.938000 1.938000 0.648245 0.690733 0.820713
110 2.604200 2.604200 2.604200 0.697003 0.741869 0.885523
111 3.280800 3.280800 3.280800 0.733042 0.779028 0.904392
112 3.968300 3.968300 3.968300 0.795707 0.841495 0.994615
113 4.666700 4.666700 4.666700 0.846699 0.910432 1.041219
114 5.376300 5.376300 5.376300 0.926884 0.980691 1.142497
115 6.097600 6.097600 6.097600 0.997732 1.073968 1.210088
116 6.830600 6.830600 6.830600 1.030405 1.095916 1.257025
117 7.575800 7.575800 7.575800 1.103446 1.171158 1.341451
118 8.333300 8.333300 8.333300 1.238531 1.312622 1.442548
119 9.103600 9.103600 9.103600 1.335089 1.419386 1.598066
120 9.887000 9.887000 9.887000 1.437919 1.527789 1.721048
121 10.68380 10.68380 10.68380 1.541406 1.636853 1.842776
122 11.49420 11.49420 11.49420 1.693457 1.775627 1.971386
123 12.31880 12.31880 12.31880 1.816589 1.910722 2.101843
124 13.15790 13.15790 13.15790 2.071055 2.185661 2.410336
125 14.01180 14.01180 14.01180 2.200397 2.325187 2.566031
126 14.88100 14.88100 14.88100 2.335375 2.477587 2.731561
127 15.76580 15.76580 15.76580 2.535342 2.667626 2.917339
128 16.66670 16.66670 16.66670 2.814530 2.979401 3.275455
129 17.58410 17.58410 17.58410 2.987695 3.164477 3.595347
130 18.51850 18.51850 18.51850 3.188421 3.355329 3.785430
131 19.47040 19.47040 19.47040 3.481571 3.674267 4.140468
132 20.44020 20.44020 20.44020 3.755365 3.976766 4.364296
133 21.42860 21.42860 21.42860 4.085116 4.330106 4.867895
134 22.43590 22.43590 22.43590 4.362510 4.646070 5.102421
135 23.46280 23.46280 23.46280 4.750168 5.033868 5.495669
136 24.50980 24.50980 24.50980 4.952719 5.242872 5.845154
137 25.57760 25.57760 25.57760 5.449463 5.783357 6.434358
138 26.66670 26.66670 26.66670 5.871804 6.207419 6.862225
139 27.77780 27.77780 27.77780 6.322732 6.735062 7.480270
140 28.91160 28.91160 28.91160 6.776127 7.185330 7.922782
141 30.06870 30.06870 30.06870 7.378004 7.808345 8.424725
142 31.25000 31.25000 31.25000 7.881933 8.307762 9.063876
143 32.45610 32.45610 32.45610 8.483662 8.862686 9.564670
144 33.68790 33.68790 33.68790 9.136342 9.607965 10.38744
145 34.94620 34.94620 34.94620 9.750250 10.25973 11.08132
146 36.23190 36.23190 36.23190 10.50553 11.01907 11.83667
147 37.54580 37.54580 37.54580 11.51549 12.09785 13.21554
148 38.88890 38.88890 38.88890 12.30607 13.02296 14.00042
149 40.26220 40.26220 40.26220 13.18844 13.89064 15.08499
150 41.66670 41.66670 41.66670 14.26674 15.02623 16.26522
151 43.10350 43.10350 43.10350 15.25041 15.98781 17.45266
152 44.57360 44.57360 44.57360 16.42161 17.24216 18.78233
153 46.07840 46.07840 46.07840 17.23589 18.11340 19.67953
154 47.61910 47.61910 47.61910 18.66414 19.55808 21.08518
155 49.19680 49.19680 49.19680 20.05895 21.01577 22.88401
156 50.81300 50.81300 50.81300 21.77391 22.91473 24.87149
157 52.46910 52.46910 52.46910 23.26963 24.45464 26.39921
158 54.16670 54.16670 54.16670 24.62418 25.95147 27.95616
159 55.90720 55.90720 55.90720 26.39518 27.73865 30.42261
160 57.69230 57.69230 57.69230 28.04986 29.48257 32.08869
161 59.52380 59.52380 59.52380 29.95095 31.63514 34.65373
162 61.40350 61.40350 61.40350 32.06223 33.88861 36.92944
163 63.33330 63.33330 63.33330 33.87715 35.74965 39.12506
164 65.31530 65.31530 65.31530 36.77080 38.90607 42.22915
165 67.35160 67.35160 67.35160 39.33775 41.55713 45.33565
166 69.44440 69.44440 69.44440 41.97440 44.08070 47.94187
167 71.59620 71.59620 71.59620 45.08670 47.64486 51.81407
168 73.80950 73.80950 73.80950 47.81944 50.34835 55.06191
169 76.08700 76.08700 76.08700 51.56640 54.23319 59.13972
170 78.43140 78.43140 78.43140 54.66876 57.68511 63.19057
171 80.84580 80.84580 80.84580 58.75038 61.96363 67.52892
172 83.33330 83.33330 83.33330 62.55214 65.85025 71.86496
173 85.89740 85.89740 85.89740 67.30215 70.86904 77.35990
174 88.54170 88.54170 88.54170 72.37133 76.10420 82.85359
175 91.26980 91.26980 91.26980 77.59777 81.56832 88.63731
176 94.08600 94.08600 94.08600 83.17807 87.31479 94.99755
177 0.000000 0.000000 1.938000 0.575048 0.609131 0.794277
178 0.000000 0.000000 3.968300 0.600659 0.630725 0.931189
179 0.000000 0.000000 6.097600 0.631933 0.657016 1.086023
180 0.000000 0.000000 8.333300 0.671490 0.686713 1.260740
181 14.70330 0.000000 12.13720 1.606088 1.273928 1.918708
182 19.35900 40.84860 17.88370 6.883923 9.747026 5.368370
183 0.000000 79.72540 55.06710 25.15647 38.92540 31.40092
184 0.000000 83.29070 70.96020 30.69567 45.50893 49.50438
185 0.000000 100.0000 72.30620 40.84111 62.13083 54.67338
186 0.000000 100.0000 85.19650 45.05094 66.24448 73.58221
187 25.18380 100.0000 86.39310 47.96091 68.31132 77.32413
188 88.85660 100.0000 91.16570 79.95489 88.06039 88.99894
189 88.85580 100.0000 100.0000 84.44889 93.72106 107.7838
190 0.000000 19.79760 20.06060 2.146189 2.883911 4.028878
191 0.000000 31.31590 57.33100 8.224587 9.605972 26.09572
192 0.000000 44.49600 65.50550 13.04792 16.48064 35.97700
193 32.22340 49.66100 74.33220 20.99320 23.98127 49.79387
194 61.16190 56.39260 77.05120 34.17580 34.45312 55.69942
195 100.0000 0.000000 37.41440 44.51588 26.96256 14.95217
196 100.0000 21.37520 46.57630 47.54089 30.62418 21.87454
197 100.0000 45.20630 46.01340 52.08360 38.38123 23.23549
198 72.34780 34.89710 0.000000 23.70295 17.97237 4.819331
199 88.09600 44.60110 0.000000 37.59114 28.68387 6.971068
200 100.0000 77.09640 0.000000 61.37793 56.75376 13.18155
201 100.0000 84.43590 19.85930 66.16300 64.24263 17.68316
202 54.54470 64.11800 36.46890 25.64346 29.97586 16.87432
203 63.99520 74.35910 37.35840 35.10815 40.86574 19.98313
204 70.61380 77.23790 61.96790 44.72876 49.44707 41.02321
205 33.01630 15.65790 18.58820 5.473271 4.455619 4.050884
206 46.18580 23.72440 31.12420 11.17421 8.994823 8.997007
207 58.76100 31.19960 40.39220 18.37243 14.80158 15.17328
208 68.54860 35.35800 40.94390 24.30515 19.22457 16.47002
209 27.42130 30.30720 87.87220 19.60684 19.60443 67.70441
210 26.07940 67.73260 100.0000 36.88663 46.31857 97.61400
211 44.52330 75.74520 100.0000 45.74842 55.89281 99.94808
212 0.000000 76.08700 0.000000 18.05356 30.77129 8.446486
213 29.74320 80.59880 0.000000 23.68156 36.89577 9.912813
214 51.68260 84.59940 0.000000 32.72209 44.48381 11.65174
215 83.88650 100.0000 42.15450 63.12514 73.09326 29.48895
216 100.0000 100.0000 55.99570 80.01779 83.79560 42.29759
217 100.0000 100.0000 68.71520 82.99268 86.66729 56.17391
218 48.26530 0.000000 51.52160 12.96854 9.068936 21.24066
219 64.67130 0.000000 61.70940 21.91947 15.01334 31.99540
220 83.97690 0.000000 71.12580 36.75308 24.56587 44.60174
221 87.64060 12.61330 82.01350 43.62158 30.56056 61.17220
222 100.0000 56.01690 83.80160 65.15313 53.41001 69.01882
223 0.000000 1.938000 0.000000 0.593479 0.655994 0.761473
224 0.000000 3.968300 0.000000 0.637970 0.739335 0.786112
225 0.000000 6.097600 0.000000 0.721916 0.892842 0.831662
226 18.64480 10.29120 0.000000 2.166866 1.927249 1.106826
227 28.48370 35.07250 53.14150 11.04738 11.86969 24.00561
228 44.75290 37.23850 77.27340 22.12301 21.05445 52.87959
229 62.46910 74.95420 100.0000 52.79151 59.74027 100.7708
230 90.52950 85.90390 100.0000 77.93015 80.96230 105.0718
231 43.38870 0.000000 15.53120 7.695675 4.915169 3.410014
232 60.98010 0.000000 16.18130 14.38661 8.871741 4.397152
233 63.28800 24.86600 100.0000 36.79917 32.25497 93.91592
234 38.83720 0.000000 83.88060 18.48255 15.41375 60.72497
235 45.74190 17.77190 100.0000 28.91238 26.70122 92.50026
236 52.25590 40.73710 100.0000 35.30404 34.88302 94.56013
237 34.44950 24.35070 100.0000 26.28496 26.01094 92.24025
238 40.21770 47.13680 100.0000 32.74642 35.41485 94.89678
239 52.69540 100.0000 100.0000 62.85149 80.93227 105.5905
240 33.35020 100.0000 23.00260 36.62532 56.84782 17.92558
241 52.35230 100.0000 30.06600 43.55441 61.14573 21.11144
242 28.32310 100.0000 0.000000 34.22923 54.80900 13.85683
243 50.10380 100.0000 0.000000 40.89154 58.79173 14.76815
244 68.22720 100.0000 0.000000 49.34744 63.73293 15.77621
245 83.77550 100.0000 57.22320 65.88739 75.60445 41.98570
246 100.0000 39.24410 56.30290 52.48728 37.45816 31.38371
247 100.0000 39.10920 74.43080 57.12680 41.82738 52.92040
248 55.47060 0.000000 42.95110 14.45498 9.574727 15.65273
249 71.35820 0.000000 42.29270 22.27184 14.14055 15.95290
250 81.92750 0.000000 83.31930 39.20387 27.52903 62.34319
251 100.0000 0.000000 100.0000 62.39277 45.36482 95.47633
252 100.0000 35.54180 100.0000 66.44106 51.91658 97.25606
253 23.43450 49.80550 46.98220 13.07367 17.18671 20.50933
254 32.64790 60.06670 49.18570 18.69186 24.63556 23.85637
255 38.30130 72.85930 78.97010 33.26805 42.15639 60.37102
256 0.000000 55.76190 50.88190 13.64501 19.92108 23.73460
257 0.000000 56.78780 67.95240 17.61533 23.93193 40.84251
258 27.62740 57.28010 74.63070 22.38842 27.69096 50.62067
259 61.76790 60.48090 100.0000 45.82265 48.33439 98.08839
260 38.83620 21.81030 40.14760 9.543267 8.094711 13.28744
261 44.49200 32.72350 48.02910 13.89853 12.67320 19.68220
262 63.39480 41.74510 53.46330 24.96651 21.94715 26.49352
263 82.28070 58.69740 62.88600 44.63589 40.28053 39.42470
264 72.40010 51.37190 47.23400 31.94319 28.72121 23.13905
265 100.0000 64.76550 52.32080 60.03795 51.10371 31.24346
266 92.25420 69.88040 52.97360 54.85457 50.67438 32.41874
267 100.0000 73.92720 66.39280 67.71211 61.49073 47.52317
268 54.91880 44.90250 26.21300 18.42418 18.01093 9.671508
269 78.18440 54.49980 31.37670 34.53211 30.81077 14.29517
270 77.62310 67.33970 89.98650 53.33042 52.99546 79.87058
271 78.52370 75.37410 100.0000 62.22609 65.33125 101.8748
272 25.17590 23.51630 42.59940 6.939205 6.876673 14.77845
273 34.36390 23.57070 49.80780 10.11763 9.084175 20.19377
274 41.77960 44.59570 70.58870 21.11501 21.81988 44.06179
275 0.000000 14.73550 27.59440 2.236206 2.608192 6.117831
276 0.000000 48.18960 29.53250 8.380441 13.18766 9.565537
277 12.12130 50.36510 41.88040 10.90102 15.64338 16.40451
278 42.34240 64.92600 67.11330 27.35817 33.28656 42.92253
279 55.14830 66.01140 78.01110 36.07088 40.08825 58.85044
280 0.000000 0.000000 100.0000 20.31421 20.53896 90.50807
281 0.000000 32.64570 100.0000 23.15785 25.41671 91.98950
282 0.000000 52.11820 100.0000 28.35289 34.45640 94.37068
283 0.000000 18.52960 42.40570 4.049290 4.438371 13.54471
284 62.62280 22.68910 61.57460 22.82816 17.19335 32.62674
285 68.20970 35.43060 70.26610 30.02443 24.50624 43.99701
286 76.32380 86.67880 100.0000 67.53803 75.65333 104.2758
287 0.000000 33.79560 45.56270 6.583898 8.506989 16.57940
288 0.000000 46.84470 52.72410 10.95092 15.08309 23.62837
289 0.000000 67.09790 67.22130 21.58157 30.81684 41.55917
290 22.65190 75.02560 78.97440 30.92047 41.85802 60.11332
291 0.000000 100.0000 58.77730 37.63405 59.07482 39.51420
292 35.63410 100.0000 62.38360 43.09939 62.60174 44.34636
293 0.000000 52.53060 19.55510 9.064691 14.92211 7.066603
294 29.96780 56.61960 25.78200 13.83508 19.32515 9.979377
295 41.92280 56.73580 42.84570 19.29572 23.30834 19.04100
296 86.37670 73.89920 48.53940 51.14337 50.27345 29.12374
297 100.0000 82.40400 58.80630 70.45095 67.56385 41.28670
298 40.66530 45.85970 7.953200 12.44749 14.35719 4.854494
299 74.23030 71.19700 0.000000 37.16586 39.50359 10.21062
300 77.48690 78.51690 17.79960 43.70553 47.59605 14.24756
301 96.99450 96.99450 96.99450 88.46557 92.78088 101.0690
302 100.0000 100.0000 100.0000 95.13842 100.0000 108.5916
303 28.15240 0.000000 12.98280 3.429831 2.364440 2.312650
304 41.29970 0.000000 26.96560 7.591031 5.035291 6.631953
305 50.17140 41.34670 36.71040 16.59881 16.08374 13.65074
306 26.62290 28.02250 18.51380 5.580513 6.138630 4.538273
307 37.38780 32.33200 28.51470 9.365665 9.320048 8.313466
308 57.80170 55.35800 31.39160 23.36361 24.67160 13.16246
309 57.58190 73.58310 54.67910 34.43809 40.86969 32.03524
310 0.000000 100.0000 42.61630 34.67712 56.44541 26.32569
311 26.40350 100.0000 71.70860 43.34680 63.70123 55.30404
312 43.69830 100.0000 86.12380 52.97100 71.38720 78.16497
313 100.0000 0.000000 0.000000 42.48688 25.24838 5.207008
314 100.0000 0.000000 22.24490 43.22805 25.86026 8.692632
315 100.0000 0.000000 67.71340 50.37312 32.23686 42.11333
316 100.0000 70.90570 90.26880 74.00956 66.82184 82.67256
317 100.0000 81.30780 100.0000 84.37893 82.09774 104.7037
318 28.38120 0.000000 100.0000 23.09406 22.19701 91.35919
319 50.59970 0.000000 100.0000 29.83477 26.19421 92.47763
320 86.26690 0.000000 100.0000 50.01994 38.06610 94.67714
321 31.92380 14.54570 0.000000 4.623848 3.693783 1.551997
322 47.11170 17.75760 0.000000 9.543307 6.924374 2.310983
323 100.0000 34.83570 0.000000 46.31100 31.18879 6.774151
324 100.0000 52.40300 35.14820 52.97003 41.13696 17.55819
325 26.80100 0.000000 22.14780 3.642566 2.602520 4.386715
326 35.26220 9.896700 25.50080 6.163330 4.541255 6.079797
327 44.40880 33.15280 24.87120 11.45130 10.65149 7.379517
328 85.72020 34.18450 56.73580 38.53319 28.13529 30.28065
329 89.00730 51.39420 100.0000 60.14949 52.87232 98.52271
330 58.54420 38.00040 84.07320 29.91980 26.91786 63.62928
331 82.02570 54.00770 83.43110 48.58805 43.10250 66.79023
332 37.14130 40.20880 17.44300 10.38701 11.68664 5.704670
333 18.14120 37.23460 0.000000 5.382292 7.689612 2.674053
334 21.65450 50.92080 0.000000 9.498768 14.30142 4.391370
335 40.17060 59.76840 14.71280 17.11114 22.36595 7.881786
336 39.76760 75.94200 33.40340 25.75005 36.21976 16.79564
337 49.13130 77.35220 70.67430 36.74887 45.57711 49.94163
338 47.76290 100.0000 75.42140 50.59227 68.38081 61.41249
339 61.48700 100.0000 88.68010 61.08765 76.58334 83.03421
340 73.16710 100.0000 100.0000 73.24359 87.17235 106.6908
341 8.333300 0.000000 0.000000 0.901271 0.804865 0.801380
342 10.68380 0.000000 0.000000 1.027972 0.881235 0.821764
343 13.25820 0.000000 21.21930 1.932865 1.574646 3.978786
344 21.41790 0.000000 51.20390 6.207855 5.058506 20.19987
345 71.72880 0.000000 56.48510 24.98061 16.45920 27.24197
346 0.000000 31.25000 0.000000 3.073355 5.045386 1.971462
347 0.000000 34.94620 0.000000 3.716382 6.164591 2.268167
348 0.000000 38.88890 0.000000 4.656459 7.803092 2.704925
349 55.00660 42.15390 0.000000 16.47658 15.51344 4.518936
350 71.47590 47.90740 0.000000 26.42378 23.19073 6.207927
351 100.0000 58.07100 0.000000 52.90310 42.45378 9.680373
352 0.000000 8.333300 0.000000 0.793008 1.022082 0.868297
353 11.20990 12.75940 0.000000 1.592643 1.781349 1.078705
354 26.85080 65.29470 0.000000 15.68469 23.94131 6.814229
355 56.89680 66.23480 0.000000 25.54530 30.00694 8.167302
356 62.83630 76.55640 25.25750 34.57928 41.50243 15.08398
357 67.26450 100.0000 24.94400 50.29493 65.09535 20.28293
358 68.01940 100.0000 43.83710 52.66683 67.11055 29.73401
359 0.000000 100.0000 23.88140 32.73971 54.65030 17.41669
360 30.99910 100.0000 38.87770 37.49729 58.01957 24.63575
361 50.03050 100.0000 49.66830 45.44349 63.16954 33.14404
362 33.54570 69.47220 38.24000 21.32417 29.96875 18.05657
363 56.13490 76.38660 43.05510 33.35990 41.35886 23.71909
364 70.41680 100.0000 59.32510 57.28262 70.82384 43.21318
365 75.31630 100.0000 71.60440 63.26445 75.42330 58.16250
366 0.000000 67.53530 35.78000 16.14620 26.00339 15.48048
367 18.97420 77.73320 58.36900 26.14869 38.65091 35.05863
368 33.41940 77.72620 64.81700 30.28103 41.52299 41.92763
369 0.000000 38.53730 78.95170 15.44554 17.68063 53.15271
370 24.52570 51.05850 100.0000 30.14952 35.19111 94.93273
371 45.20630 62.44330 100.0000 39.61032 45.37361 97.26787
372 0.000000 0.000000 34.94620 2.228506 2.016644 8.722547
373 17.61490 0.000000 36.52350 3.554318 2.866326 9.914069
374 86.13450 0.000000 40.13080 32.39506 19.98251 15.44290
375 100.0000 0.000000 52.56350 46.90130 29.06496 25.96153
376 100.0000 23.80900 62.90720 51.14288 34.10251 36.80845
377 100.0000 60.89070 100.0000 74.17913 64.97929 100.8203
378 39.03980 0.000000 37.10900 7.948150 5.512408 11.15704
379 47.25430 0.000000 64.99940 15.52915 11.51897 34.83971
380 53.64520 0.000000 81.49590 22.96440 17.75274 58.09840
381 100.0000 0.000000 83.58740 55.14622 36.90452 64.27705
382 100.0000 18.20870 90.82450 59.44186 41.84514 77.56961
383 0.000000 68.57260 83.82960 27.55943 37.13221 65.56856
384 0.000000 84.27970 85.83140 36.41085 51.52706 72.31269
385 0.000000 100.0000 100.0000 52.27623 74.68626 103.6271
386 29.19670 100.0000 100.0000 55.28385 76.52600 104.4778
387 0.000000 42.16470 38.08300 7.570139 11.06942 12.77330
388 0.000000 59.51570 42.19010 13.63330 21.02455 17.87494
389 31.01550 68.18000 47.44280 21.31109 29.83356 23.71679
390 50.04990 77.94520 59.96070 34.98661 44.18195 37.79344
391 59.57420 79.71130 69.50710 41.87919 50.12984 49.47171
392 0.000000 22.16420 12.64220 2.147979 3.208090 2.568092
393 14.97470 25.08680 19.73900 3.629931 4.535611 4.386640
394 13.56430 35.40840 36.46360 6.518357 8.546839 11.44801
395 35.70760 43.98800 52.00610 14.76503 16.48981 24.05782
396 0.000000 32.89920 24.95850 4.246576 6.286958 6.362978
397 35.59470 45.82110 35.43960 12.74077 15.06009 12.63822
398 47.40610 47.27230 40.57450 17.70928 18.71788 16.33182
399 72.71780 48.01430 69.51690 35.70921 31.35937 44.73055
400 0.000000 0.000000 0.000000 0.565611 0.601492 0.744330
401 13.15790 0.000000 0.000000 1.287569 1.035106 0.861374
402 15.76580 0.000000 0.000000 1.505423 1.165746 0.894880
403 71.44040 0.000000 29.14380 20.80789 12.86352 8.926122
404 74.47900 29.80260 25.27350 25.43793 18.28876 9.014591
405 80.15610 70.83400 35.07030 43.05997 43.48069 18.90927
406 84.23380 73.50000 68.66560 54.00394 53.49005 49.38964
407 100.0000 85.97220 75.58210 76.91091 75.02556 62.56458
408 35.87700 0.000000 65.58130 12.04525 9.491755 34.77944
409 61.71640 0.000000 70.65690 22.69733 16.25630 42.43952
410 100.0000 20.36190 76.89620 54.50519 37.06562 54.89493
411 100.0000 82.81080 41.62490 67.43692 64.80283 27.00041
412 100.0000 100.0000 40.84420 77.35388 81.39952 30.03871
413 100.0000 100.0000 80.14250 86.60047 90.11911 71.90496
414 61.70810 36.74580 18.73250 18.81835 15.83960 6.951070
415 0.636100 0.636100 0.636100 0.581733 0.618857 0.758041
416 1.282100 1.282100 1.282100 0.600012 0.637746 0.779986
417 1.938000 0.000000 0.000000 0.608840 0.628101 0.752780
418 6.282600 10.08660 19.00400 1.600996 1.717796 3.463569
419 10.36730 15.65630 49.76760 5.483267 5.371873 19.07707
420 47.98410 22.43840 67.66740 18.03522 14.90716 39.19329
421 53.07560 77.20460 79.08100 40.75234 49.01750 62.68058
422 67.71350 78.00400 84.00610 50.21408 55.82420 70.73082
423 100.0000 80.64860 82.31390 76.35946 72.54017 71.47761
424 100.0000 86.12870 92.95970 83.66026 82.24993 91.15337
425 80.69030 0.000000 20.37140 26.35957 15.95003 6.693948
426 89.33750 32.04300 38.46930 37.77169 26.30929 16.12831
427 36.20560 7.460000 16.46610 5.762120 4.018045 3.492301
428 56.09000 10.14280 23.68140 13.11164 8.596553 6.224557
429 57.41430 21.69580 32.29890 15.38522 11.21575 9.817530
430 46.28300 13.11540 25.19460 9.698774 6.818820 6.457369
431 49.95130 12.58910 34.89990 11.80354 8.279955 10.45424
432 61.99080 11.61290 41.30390 17.65247 11.90292 14.92726
433 77.01330 61.79390 46.61000 38.18534 36.63267 24.67955
434 85.38270 87.57750 0.000000 53.74750 58.63936 14.35464
435 89.16230 87.85280 17.27740 57.65809 61.73956 16.97958
436 23.48690 0.000000 84.40590 15.27324 13.54542 60.74266
437 13.06540 25.14010 73.19810 12.11591 12.26927 44.91317
438 9.178900 74.12060 83.18180 30.25291 41.46638 65.88879
439 11.68590 90.65140 87.76680 41.61180 59.23543 77.26873
440 19.69600 32.18820 20.71490 5.265419 6.727746 5.244937
441 60.27740 41.09970 40.20000 21.28973 18.96113 16.24760
442 78.78410 40.63280 41.54210 32.07269 25.23156 18.36234
443 89.31700 46.35530 41.05360 41.57008 32.39325 19.43672
444 88.59790 67.62870 40.05280 48.84848 45.45599 21.87057
445 93.63080 84.28570 49.97980 63.42468 63.81606 32.71311
446 31.75930 44.71940 25.42600 10.56036 13.17905 8.391417
447 31.31100 58.42950 37.18470 16.03098 21.81039 15.45323
448 68.91550 61.20220 50.25630 33.89757 34.09275 26.75455
449 68.73680 87.27290 55.93840 48.11866 57.38564 37.40907
450 27.84050 68.26060 25.84000 18.06454 27.18336 11.91175
451 74.87040 71.21450 60.12810 43.77855 45.50368 37.88777
452 57.92550 32.78150 0.000000 15.71264 12.77401 3.752795
453 72.30450 37.88880 16.06750 24.92415 19.66417 7.020654
454 83.36190 44.32040 53.75680 38.56232 30.73225 28.19017
455 82.62300 9.256100 47.89400 31.15418 19.93267 20.81824
456 90.67660 17.89650 47.89860 38.32052 24.89003 21.76168
457 87.75200 32.23020 48.11440 38.02444 26.88330 22.81373
458 89.79170 51.12010 51.12580 45.00063 36.53086 27.46468
459 43.76290 27.93080 0.000000 9.508286 8.290145 2.724706
460 57.73180 49.32880 12.58120 20.15555 20.20007 6.825425
461 83.56940 70.02170 11.52920 43.56954 42.87123 11.67060
462 94.71260 74.52760 25.06660 55.90249 52.79158 16.80849
463 90.98980 14.09160 16.49030 35.23439 21.79252 6.882281
464 91.59290 13.06860 31.86930 36.60778 22.75860 11.71699
465 94.27310 24.64570 9.095500 38.94524 25.11837 6.286971
466 100.0000 27.37860 18.55560 45.55643 29.51260 8.655707
467 55.11660 14.37630 10.76300 12.56493 8.431449 3.425911
468 56.55010 23.74840 21.59460 14.52496 10.86056 6.393093
469 45.49490 21.16470 12.73380 9.571195 7.399738 3.579180
470 50.06800 30.92460 14.02770 12.64067 10.73516 4.664935
471 52.47540 34.64850 43.59270 16.79763 14.61397 17.04277
472 55.06740 59.41510 44.22720 25.10227 27.93214 21.13135
473 61.09880 61.89140 53.66250 30.17991 32.22505 29.10873
474 70.01650 63.63420 60.59720 37.60974 38.08339 36.99343
475 79.39230 68.30080 71.28550 48.16189 47.42993 51.13135
476 87.99610 68.74900 89.18540 60.97348 57.76921 78.96812
477 84.40570 0.000000 56.12810 33.51624 21.47394 28.13857
478 89.20230 16.70440 57.84270 38.42942 25.39922 30.20606
479 89.06170 26.04520 100.0000 54.15571 42.69359 95.84602
480 52.81650 45.78730 64.56630 23.67584 23.09166 37.39160
481 67.50770 46.68190 75.74830 34.09212 30.70815 53.03347
482 70.58060 58.22810 77.33250 40.29930 38.76063 57.19778
483 0.000000 84.37050 45.34990 25.86201 41.49846 24.68245
484 36.38570 88.68150 50.01660 34.06252 49.42577 30.44562
485 45.36560 90.02420 60.37720 40.09158 54.69196 40.46217
486 16.42160 66.24420 50.02500 18.50453 27.32873 25.16645
487 49.82070 67.32120 60.22240 29.58139 35.20646 36.04938
488 66.10110 67.43800 76.38120 41.47104 43.85976 57.42812
489 91.68280 70.70560 79.41460 61.57550 57.43868 64.52376
490 70.95350 55.68190 56.80010 34.39758 32.47696 31.85314
491 77.12500 70.06890 80.21090 50.71064 51.12484 64.58383
492 76.70940 75.72360 90.59440 56.79677 59.35800 82.52180
493 22.62180 0.000000 67.69060 10.04863 8.518838 37.38193
494 25.40670 17.88850 79.42600 14.91551 13.79165 54.13588
495 52.79480 20.08960 79.77820 23.19193 18.91702 55.53390
496 65.53410 25.53700 88.68760 32.85799 26.79400 71.37425
497 75.80830 29.51640 88.12800 39.48615 31.28823 71.63699
498 100.0000 42.32800 88.69150 62.76211 48.13168 75.31572
499 47.62790 11.83950 15.25640 9.621003 6.569078 3.823883
500 56.73580 57.95870 14.20340 22.70752 24.95850 8.277280
501 58.13800 88.87940 18.67190 38.72189 51.32755 15.62534
502 58.59080 88.89450 34.32260 40.17678 52.62368 21.05434
503 72.84870 91.21690 34.85240 49.35467 59.50891 22.68510
504 29.19710 79.69880 17.70620 23.67629 36.64249 12.03300
505 32.53570 87.37230 31.50070 29.91739 45.42113 18.16664
506 16.35650 89.97710 16.53990 27.36740 44.88594 13.60382
507 24.51350 100.0000 51.13080 38.30057 58.93599 33.16726
508 7.587800 42.59240 55.85480 10.83911 14.01291 26.31829
509 15.01430 50.33140 66.12440 15.82564 20.03521 38.37790
510 5.003600 24.37190 38.54390 4.370520 5.241176 11.57472
511 58.91600 28.75970 47.91790 19.08824 15.11981 20.17211
512 71.49610 25.29000 44.92350 24.71324 17.69528 18.88583
513 71.51030 43.29830 51.22220 29.21844 24.60886 25.03488
514 41.09880 34.25550 15.72310 10.10602 9.959360 4.806553
515 47.76810 45.29320 15.40650 14.94139 15.74417 6.282187
516 48.49490 45.46150 31.41130 16.52016 17.15811 11.30907
517 42.12060 52.47920 47.73340 18.49786 21.38147 21.94762
518 43.93100 56.05830 60.91980 22.60604 25.83940 34.13400
519 53.66490 55.82800 65.61340 27.59116 29.11551 39.90250
520 79.12450 57.48410 90.81020 50.46168 46.76417 79.80975
521 45.37440 28.85870 55.64120 15.34661 13.35237 26.34679
522 45.12420 34.32420 64.70830 17.99540 16.59622 35.72918
523 77.03050 88.53430 87.53170 62.79802 70.24923 79.43851
524 80.47640 88.76390 94.87790 68.58360 75.43766 94.44400
525 0.000000 23.47940 82.89500 14.11791 14.35295 57.88798
526 15.24430 38.57760 90.05080 20.64343 22.62364 72.93394
527 16.56990 72.50000 95.36960 35.26960 46.11872 88.11183
528 14.45780 86.03210 94.80990 42.22134 58.03667 90.22591
529 56.13720 86.55000 100.0000 56.35910 69.04059 102.8926
530 19.57170 19.30390 10.95170 3.120089 3.364251 2.403922
531 29.49170 28.85700 10.55180 5.823695 6.337672 3.098310
532 29.31450 35.68440 26.77220 7.934297 9.261017 7.674869
533 45.17930 47.96720 53.84250 18.95296 20.24910 26.16976
534 53.20130 50.77700 80.63940 30.09693 30.38212 60.22167
535 28.79450 22.26390 68.45070 12.63003 11.75567 39.30709
536 29.58260 35.89820 67.60680 14.56593 15.23417 38.75298
537 31.16180 12.05860 57.15280 9.435454 7.851267 26.09955
538 38.57650 24.94900 66.64700 14.84332 13.20556 37.24006
539 37.35490 22.69950 78.93030 17.83909 15.97937 53.68976
540 51.52500 28.47050 89.96520 27.51017 24.46790 72.85991
541 10.28800 18.47280 23.48430 2.696623 3.129349 4.971245
542 29.91620 20.44740 22.80840 5.446168 5.017555 5.311742
543 38.03040 22.33340 29.73960 8.360414 7.162977 8.212519
544 76.35430 26.50260 38.92170 27.12186 19.07551 15.04350
545 77.44460 77.43650 69.76620 50.82133 53.71933 50.62033
546 91.27340 81.44840 80.55730 67.56881 67.45840 68.06356
547 90.06450 80.77410 87.19920 68.55161 68.68719 78.45850
548 93.90840 41.34430 8.422700 41.62860 30.19534 7.544083
549 100.0000 49.78910 17.58670 50.62071 38.35677 10.84616
550 66.88070 34.67700 30.81670 22.17549 17.35403 10.91490
551 77.27810 83.50020 31.78240 47.38853 53.24694 19.91242
552 85.01790 85.52050 52.86640 57.40256 61.53944 35.23825
553 90.85570 95.37950 62.50350 70.08084 75.77929 46.94980
554 24.30570 42.18320 29.01180 8.726819 11.49541 9.070192
555 28.81850 50.66580 39.14060 12.87283 16.89486 15.31317
556 69.49600 82.11410 70.39910 48.96046 55.56983 52.17385
557 77.98770 87.84640 80.39060 60.89288 67.66523 68.45773
558 12.63270 59.44600 30.53420 12.89025 20.14644 11.75731
559 15.25230 71.16120 30.96390 18.05551 28.55050 14.01974
560 19.53170 83.11840 39.01450 25.84683 40.44853 20.72968
561 26.91230 88.11010 79.39730 39.04759 54.49698 63.66450
562 87.86970 89.23650 81.69030 69.64464 74.01266 71.31646
563 69.70350 12.95110 17.83800 19.93272 12.72946 5.648574
564 80.91450 14.19600 33.20030 28.14853 17.94942 11.53693
565 89.06970 44.59190 71.74640 46.96940 37.14414 48.71486
566 89.23920 57.63450 75.47780 52.65216 45.55751 55.64232
567 90.23990 69.77030 100.0000 68.66608 66.17766 101.5019
568 36.27200 57.29520 67.12690 22.40550 26.95364 41.28696
569 43.46340 61.13220 77.72290 29.25177 33.66074 56.66485
570 51.43100 63.25760 89.20270 36.95415 40.90813 75.58905
571 8.573100 9.730700 29.28770 2.414415 2.376175 6.751875
572 11.03190 17.52720 35.96390 3.732024 3.962926 9.913961
573 14.70180 25.33220 47.53590 6.513214 7.098501 17.78358
574 16.09200 35.11570 52.55720 9.152616 10.80277 22.84423
575 38.69420 37.33220 57.71600 14.94264 14.96052 28.43789
576 17.51700 16.31670 26.75160 3.414782 3.425845 6.111766
577 15.52200 13.14510 62.43740 8.332681 7.656349 30.95285
578 53.07810 13.80750 63.97900 18.07771 13.57138 34.39960
579 63.37940 19.08910 76.06330 26.68025 20.43987 50.91862
580 62.56150 34.25160 75.96530 28.52385 24.00585 51.90741
581 85.15860 44.81100 78.69960 46.13017 37.52548 58.65353
582 93.29040 61.44120 89.49810 62.87057 55.53701 78.90160
583 29.25150 19.61810 9.182400 4.596339 4.227753 2.342506
584 38.08100 23.99150 10.27710 7.436987 6.532845 3.014811
585 45.90280 23.44550 38.39080 11.78465 9.575847 12.77913
586 53.38550 29.64530 52.43470 17.74181 14.75509 23.89595
587 59.51680 40.83760 62.92740 24.62698 22.08823 35.26848
588 26.98430 0.000000 33.31310 4.550757 3.360206 8.437020
589 34.04690 0.000000 48.34370 8.161254 6.070345 18.26792
590 40.41240 13.62760 55.67300 11.78718 9.274822 25.28685
591 6.800700 28.82300 27.18360 4.020123 5.500587 6.807688
592 15.38790 34.98600 28.32230 5.788200 7.745848 7.754165
593 24.21760 42.32480 37.30300 9.566728 12.23856 12.99410
594 33.85030 42.97400 40.93540 12.15000 14.05713 15.45701
595 58.71440 48.62090 48.05280 23.72979 22.94600 22.59890
596 64.09670 51.23280 58.51530 28.78926 27.53744 32.40101
597 66.35940 51.04590 88.79960 39.30648 37.24053 74.04849
598 36.97700 55.49360 53.26470 18.90560 23.20266 26.95245
599 38.47790 68.74130 60.23880 26.01332 33.69082 35.68372
600 64.19000 74.71090 73.35590 43.01825 48.30444 54.23011
601 60.95540 26.14020 12.06360 16.35675 12.18192 4.550744
602 83.25890 33.99680 13.44140 31.38434 22.44075 6.841135
603 92.88760 38.68650 27.78630 41.34079 29.79537 12.15625
604 71.31600 11.51110 36.62400 22.13325 14.29880 12.52354
605 73.15830 12.61330 51.59770 25.65625 17.15147 23.42288
606 87.78880 12.69600 67.61810 39.64733 26.50595 40.88074
607 100.0000 48.82510 67.87910 57.83600 44.55956 45.35384
608 17.77550 9.740600 10.46390 2.162465 1.967802 1.932163
609 20.68050 32.19350 41.96090 7.423850 8.557407 14.59183
610 36.38720 33.60340 44.52240 11.23359 11.25840 17.26363
611 47.00880 38.66800 44.79270 15.97518 15.42996 18.31904
612 14.90470 31.89070 9.786700 4.181817 5.857438 2.909384
613 26.62210 35.64530 13.00260 6.689029 8.309081 3.945602
614 29.87010 56.25190 12.56790 12.86242 18.27385 6.521076
615 49.81780 58.78180 22.01290 20.64052 24.32728 9.979059
616 0.000000 19.86800 60.78650 7.459326 7.633646 28.83366
617 13.59430 30.01960 62.85770 10.13627 10.99283 32.29910
618 19.54350 43.82780 78.83540 18.35223 20.94944 54.91992
619 39.24420 51.83810 85.97780 27.24689 29.89208 67.76042
620 0.000000 0.000000 0.000000 0.564960 0.600799 0.744787
621 0.000000 10.51330 12.46840 1.141768 1.411370 2.074131
622 26.74540 19.59700 15.42930 4.353523 4.145375 3.304952
623 27.81130 46.51290 14.13600 9.568466 13.07882 5.427757
624 38.04440 49.76080 16.95970 13.25631 16.39419 6.793279
625 46.33750 50.98770 27.94050 16.99589 19.20638 10.69294
626 65.12100 66.08640 28.37180 30.71410 33.62479 14.12480
627 57.62870 78.24030 10.48310 32.19000 40.57175 11.54057
628 74.23620 88.43690 18.24520 47.38998 56.08098 16.39020
629 15.40370 57.46180 13.36410 11.32162 18.01890 6.576622
630 40.81130 69.64060 18.86720 21.87890 30.05018 10.73190
631 46.74510 76.38540 47.24170 30.33469 39.74883 26.13686
632 53.76780 88.11170 70.79940 44.71743 56.94403 53.11783
633 68.79790 88.13030 81.06380 55.47108 64.51756 69.06494
634 0.000000 0.000000 0.000000 0.565143 0.601218 0.745095
635 6.742600 16.33480 12.92460 1.763445 2.246224 2.319194
636 8.984400 30.17430 14.76890 3.663385 5.347624 3.519233
637 12.56040 46.33020 13.21270 7.403259 11.60766 4.936670
638 17.26270 49.11550 25.72950 9.427058 13.91822 8.601690
639 16.59260 54.61880 37.28970 12.13574 17.79439 14.42846
640 20.76810 60.94170 55.07200 17.69026 24.58675 28.43560
641 30.17250 66.39000 65.62470 23.98623 31.61186 40.54406
642 37.64240 79.79240 76.33670 35.99344 47.43412 58.39787
643 46.41140 88.58640 77.51740 44.30795 57.81624 62.48545
644 61.98450 71.40020 62.30280 36.85660 41.69577 39.74420
645 66.89970 86.11140 63.64110 48.36099 57.32358 44.68709
646 0.000000 53.38870 83.33790 21.20302 26.38209 62.31063
647 30.75850 86.31030 90.34010 42.74603 57.63375 81.55335
648 43.70300 90.63360 90.13530 49.20758 64.24432 83.29716
649 55.99670 0.000000 29.29420 13.09484 8.330120 8.194362
650 55.88960 9.005700 53.34550 16.77278 11.78897 23.87151
651 78.44000 28.30140 70.22540 35.02452 26.02182 44.23152
652 91.37060 28.06740 79.06650 48.21971 34.81613 58.28746
653 67.30960 54.73810 23.93150 27.38391 26.63981 10.93298
654 70.52830 60.49010 36.68120 32.66900 32.49097 17.57209
655 70.54990 78.97950 51.82620 43.46392 48.99910 31.52321
656 76.26170 100.0000 91.02510 70.54205 82.64692 88.18616
657 20.65440 87.98130 54.17910 31.26683 47.69341 33.11621
658 21.11410 88.84790 72.15230 36.49079 52.94136 53.49438
659 13.11730 55.69900 57.98340 15.75294 21.61277 30.46289
660 18.99900 62.94100 70.61250 22.03997 29.24677 45.82185
661 49.15960 72.26680 83.76630 38.19570 45.24241 68.42809
662 83.34460 82.80010 90.46020 65.63682 68.75472 84.56464
663 38.00540 39.39290 27.88540 11.09675 12.01879 8.876036
664 58.75890 39.06030 28.45090 18.80571 16.57933 10.04550
665 79.89610 42.53500 29.77370 32.20425 25.37064 12.32038
666 89.91570 54.96840 38.11680 44.34193 36.93307 18.60242
667 100.0000 68.75810 40.21890 59.99152 52.53313 23.23678
668 65.36750 20.57140 0.000000 17.68533 12.04614 3.407032
669 86.46430 23.09410 0.000000 31.92283 20.73769 4.973155
670 91.22690 59.72660 27.67020 46.67762 40.00018 14.86077
671 68.23040 46.03940 18.20720 24.59593 21.68156 8.081934
672 72.81110 65.55370 19.62140 34.54038 35.43113 11.86811
673 80.66290 65.53890 58.16890 44.78577 43.10155 35.54774
674 92.66910 69.93980 69.74250 59.12971 54.59551 50.39229
675 44.90480 41.05150 53.96050 17.37470 17.34578 25.87203
676 54.51390 44.41660 55.00290 21.88388 21.04419 27.52616
677 61.10120 53.69900 65.42590 29.92666 29.70224 40.06668
678 71.46140 60.23380 69.40670 39.29918 38.39751 46.61128
679 83.57050 64.12840 78.46210 51.95370 48.51788 61.05791
680 32.05960 12.36770 41.31950 7.167259 5.769139 13.54829
681 42.44320 14.25200 46.66120 10.88419 8.313927 17.84034
682 70.30260 17.75460 60.06910 26.06883 18.36178 31.13066
683 70.86270 37.09680 62.03180 30.05688 24.21869 34.78385
684 79.18860 44.43720 61.67750 36.96474 30.39620 35.77269
685 87.56700 100.0000 70.37420 71.63061 80.21402 56.86488
686 0.000000 68.48050 20.39620 15.31418 25.71698 9.902744
687 13.66660 78.67860 20.46600 21.12626 34.62293 12.09541
688 13.36100 92.95440 35.34380 30.63789 49.59879 20.82293
689 0.000000 36.64170 16.40760 4.533746 7.221475 4.403271
690 11.80030 42.18460 28.69780 7.255668 10.63419 8.687872
691 28.03110 42.16810 44.83320 11.20155 13.52244 17.88207
692 28.56930 44.36040 60.36740 14.80673 17.19105 31.53040
693 41.13680 50.14520 64.07260 20.67773 22.78484 36.97008
694 50.57630 56.05910 74.62530 29.02128 30.98331 51.69201
695 65.51120 69.89420 87.30260 45.72998 49.15921 74.72770
696 15.90200 26.90960 31.81740 4.861218 5.801417 8.597344
697 54.85360 27.27260 61.79310 19.98115 16.30204 32.93274
698 56.24170 42.10160 72.69810 26.17397 24.20216 47.27571
699 74.48190 44.01530 87.87560 41.88679 36.27311 71.97262
700 13.26680 16.49670 92.15380 17.91896 17.46280 74.62045
701 16.18000 54.33160 91.25450 25.85622 31.04552 77.32461
702 32.24650 59.72060 89.48150 29.62662 35.04808 74.73688
703 59.93240 77.62520 92.71120 49.17028 56.70652 85.76840
704 89.11350 78.62400 92.89230 68.48950 68.39783 88.55531
705 66.08650 20.02300 28.12030 19.33150 13.26198 8.850078
706 72.56630 46.11810 35.63840 28.84891 24.77323 15.01611
707 75.10330 76.23850 38.52330 42.83671 46.43219 21.70741
708 79.22270 88.69550 62.88560 57.01255 63.80894 45.15416
709 78.30200 100.0000 82.22260 68.76971 80.06082 74.02880
710 0.000000 27.09110 32.91770 3.951110 5.270430 8.678997
711 8.703100 41.84920 43.74990 8.601978 11.77280 16.66690
712 19.62990 42.27160 49.74080 10.75399 13.48784 21.36233
713 27.94210 52.45780 56.93890 16.31678 20.65431 29.13015
714 36.43160 80.38120 56.31070 30.63480 42.70584 34.14924
715 57.09540 87.91600 57.83170 42.97236 54.80654 38.18695
716 80.16320 89.30300 72.71540 60.94964 67.82467 57.50703
717 89.90090 90.41650 73.25450 69.36218 73.53659 59.48050
718 21.23790 19.62010 0.000000 3.175394 3.348121 1.498005
719 33.87110 27.10800 18.88790 7.039978 6.857673 4.845263
720 52.04880 29.68650 28.53830 14.21340 11.75312 8.848270
721 70.98280 29.34280 53.53330 26.82350 20.09653 25.86223
722 85.87750 29.83830 64.74080 39.48675 28.39617 38.12365
723 14.59140 69.04850 43.02000 18.84082 28.74128 20.65706
724 27.27880 77.17280 44.75640 24.74819 36.67213 23.63417
725 59.00880 87.36210 82.74460 50.41608 61.54075 70.53520
726 63.31430 88.04450 92.42560 56.59387 67.44910 88.14411
727 0.000000 0.000000 0.000000 0.566036 0.601853 0.745130
728 11.99060 6.891700 15.71930 1.720918 1.603489 2.632739
729 40.99900 23.21790 21.15780 8.768958 7.321470 5.485476
730 44.33800 32.41670 33.97130 12.09237 11.08014 11.03168
731 76.23520 20.64910 10.94530 24.45302 16.16384 5.111763
732 85.08670 23.33760 24.45720 31.82496 20.99867 9.020071
733 23.36490 6.583300 13.86460 2.955255 2.296393 2.550696
734 22.93750 11.05390 20.08570 3.306872 2.796739 4.033003
735 37.50930 29.01750 36.15680 9.706000 9.110401 11.35909
736 44.55900 51.58770 37.23070 17.59976 20.04589 15.01377
737 47.51940 65.33760 42.56800 24.70060 30.37669 20.82836
738 66.85420 65.83340 42.56240 33.52224 35.82450 22.01792
739 23.16510 32.28280 30.86390 6.521140 7.687625 8.757108
740 30.51230 35.51340 41.91230 9.811592 10.84816 15.24419
741 32.80800 39.92770 81.63350 20.76311 21.70456 59.06425
742 38.35910 68.40120 87.30470 34.14448 41.46105 73.04398
743 43.76650 83.29880 92.41810 45.78648 57.97234 86.13002
744 13.68310 89.19660 63.40660 33.34763 50.24744 42.81633
745 36.74230 89.09770 69.36730 38.86195 54.16521 50.36527
746 64.20830 92.74890 69.91900 52.35941 64.68789 53.31223
747 26.90500 32.12040 0.000000 5.764121 6.825976 2.425572
748 40.10380 37.46710 0.000000 10.14457 10.65522 3.384571
749 49.86130 38.24070 11.41980 13.97146 13.30675 4.915235
750 64.60300 49.77520 35.98510 25.25625 23.91633 14.98538
751 83.99970 56.55590 46.26210 41.57434 36.34518 24.00698
752 88.36930 60.41580 58.03730 48.71320 43.08457 35.26720
753 90.11350 76.81790 63.62750 59.10098 57.79361 44.35739
754 93.70670 88.10950 79.06200 73.19634 74.83195 68.10139
755 86.18560 48.09660 20.56850 37.93957 30.42740 10.27241
756 80.66620 50.52480 10.99270 33.79882 28.60900 8.214138
757 92.66790 60.62210 9.445300 46.83594 40.20494 10.29926
758 91.49790 88.74770 32.76850 61.73421 64.88075 22.49285
759 39.54640 56.84020 0.000000 15.49508 20.09267 5.830023
760 51.56180 60.72390 52.12700 25.49159 29.05905 27.26135
761 53.99330 61.84910 62.45900 29.43108 32.46173 37.59052
762 53.47760 66.74390 70.58590 33.20224 37.78607 48.14956
763 16.87550 11.61820 37.65910 4.132225 3.782225 11.02366
764 21.92340 12.48310 47.18050 6.116742 5.399716 17.40974
765 41.09990 11.49610 75.40240 16.92492 13.85474 48.26554
766 56.80820 9.809600 91.96770 28.73070 23.40720 76.28653
767 66.80840 45.92340 100.0000 43.45308 41.18172 96.27289
768 15.17530 40.67110 66.42750 13.37401 15.71690 37.36079
769 15.19870 57.91430 81.38880 23.31139 29.38337 60.88585
770 24.04850 68.79910 83.62440 29.68401 38.37231 66.13409
771 44.37620 66.44150 50.68240 25.02066 31.21261 26.66863
772 63.90050 69.67240 50.81670 35.00805 38.93679 28.84121
773 77.98260 73.85570 51.84270 45.58580 47.26897 30.97407
774 83.76530 81.37440 63.42540 56.74915 59.24538 44.91383
775 94.49970 86.90480 64.70630 69.23921 70.04847 47.93392
776 40.07980 54.81490 30.89520 16.46421 20.38330 12.05247
777 42.54600 64.94330 31.12320 21.17618 27.64761 13.85015
778 53.25700 75.31070 30.31390 29.96484 37.97378 15.95525
779 45.05490 70.16940 0.000000 22.82615 30.48650 8.382604
780 46.19310 88.26210 32.87700 34.62908 48.63494 19.48429
781 68.90970 87.98700 45.49870 46.87120 56.42561 28.47864
782 78.88230 88.87800 47.83000 53.99539 61.40144 31.23082
783 90.26840 90.82400 47.09090 63.89414 68.23870 32.04153
784 50.60510 65.24480 13.22130 23.09556 28.34424 9.079945
785 65.38110 69.36480 15.08540 31.60273 35.43806 10.90169
786 89.70860 79.10360 33.57700 54.80627 55.22647 20.83749
787 33.61760 10.30650 31.69280 6.278095 4.736565 8.289615
788 45.97240 12.10690 40.16630 10.92746 7.885249 13.21563
789 58.17850 15.49780 48.32470 17.22724 12.26760 19.83822
790 72.23360 14.19220 72.49840 30.24657 21.62223 46.32673
791 79.40850 34.56660 80.61280 40.13484 31.52528 60.08736
792 28.17330 18.34370 28.80330 5.304904 4.796650 7.139832
793 30.96100 24.17680 37.27950 7.424683 7.049352 11.64437
794 42.95260 86.95000 42.62070 34.17115 48.05545 25.00458
795 58.05940 89.80800 47.65820 42.35393 54.98620 29.96547
796 0.000000 68.81950 56.25660 19.88887 29.84243 30.53076
797 17.75560 71.10340 64.26200 23.92672 33.85502 39.55608
798 7.981700 77.34500 73.62360 28.80287 41.31258 52.73133
799 74.34390 56.88730 12.53340 31.97456 30.01814 8.994535
800 83.90520 64.93320 26.37070 42.68248 40.12690 14.59672
801 28.57690 11.62350 9.263700 3.874024 3.121501 2.045250
802 37.45340 12.53590 9.266400 6.215504 4.563445 2.385854
803 38.66120 11.96820 90.30200 21.49665 18.88319 71.99227
804 40.49750 33.46790 91.25270 25.05617 24.10761 75.48872
805 49.60500 48.16520 90.68130 31.67590 32.19626 76.10058
806 65.62200 62.55800 90.59480 43.99581 45.20968 79.30533
807 21.87710 4.934600 25.00450 3.266712 2.590114 5.432595
808 23.07650 12.51950 32.46230 4.371959 3.816636 8.241406
809 24.31070 25.92570 34.41350 6.059381 6.432904 9.852688
810 28.47050 26.57650 56.77830 10.34104 10.08186 26.39210
811 100.0000 58.21110 61.29530 59.33960 48.37188 38.86113
812 100.0000 65.75990 75.42160 66.62832 57.72762 58.10231
813 10.79270 9.914800 4.046000 1.427998 1.499144 1.184408
814 10.08650 18.82210 8.288900 2.094711 2.675332 1.831513
815 18.09820 25.34940 11.98570 3.703620 4.567721 2.838968
816 20.36590 68.90860 12.25310 16.78562 26.66504 8.481583
817 43.54650 79.19350 13.09660 27.31605 38.54332 11.42010
818 43.86640 91.49250 14.20690 34.42074 50.17746 14.29151
819 58.50500 52.08890 41.27620 23.73293 24.02451 18.21667
820 76.07440 54.10820 65.59390 39.06973 35.36649 41.26564
821 90.86010 54.11930 66.80060 50.80075 42.37994 43.93385
822 68.92850 0.000000 85.84870 32.01171 23.77412 66.14179
823 82.06530 12.71570 91.05360 43.14322 31.88205 75.91992
824 90.08650 23.01500 91.03060 50.61045 37.39299 77.05268
825 90.88500 44.12370 91.91930 56.25363 45.63969 80.85664
END_DATA
CAL    

DESCRIPTOR "Argyll Device Calibration State"
ORIGINATOR "Argyll dispread"
CREATED "Tue May 26 14:13:25 2020"
DEVICE_CLASS "DISPLAY"
COLOR_REP "RGB"

BEGIN_ARGYLL_DISPCAL_ARGS
-v2 -qm -m -w0.3127,0.329 -gs -f1.0 -k0 -A4.0 -d1 -c1 -yn -P0.497237569061,1,1.74670184697 -F
END_ARGYLL_DISPCAL_ARGS


NUMBER_OF_FIELDS 4
BEGIN_DATA_FORMAT
RGB_I RGB_R RGB_G RGB_B
END_DATA_FORMAT

NUMBER_OF_SETS 256
BEGIN_DATA
0.00000000 0.00000000 0.00000000 0.00000000
0.00392157 0.01326130 0.01085090 0.00818853
0.00784314 0.02388780 0.01973990 0.01540450
0.01176470 0.03259960 0.02715460 0.02181140
0.01568630 0.03992420 0.03344350 0.02753820
0.01960780 0.04618530 0.03889630 0.03268760
0.02352940 0.05165670 0.04372270 0.03735330
0.02745100 0.05653020 0.04807050 0.04163040
0.03137250 0.06093740 0.05204570 0.04559800
0.03529410 0.06496110 0.05572700 0.04931550
0.03921570 0.06867590 0.05917020 0.05283020
0.04313730 0.07214830 0.06241580 0.05617390
0.04705880 0.07542150 0.06549450 0.05937010
0.05098040 0.07853660 0.06842630 0.06244310
0.05490200 0.08150960 0.07123270 0.06540950
0.05882350 0.08437480 0.07392390 0.06827940
0.06274510 0.08713900 0.07652480 0.07106100
0.06666670 0.08981100 0.07903840 0.07376420
0.07058820 0.09242690 0.08147140 0.07639270
0.07450980 0.09499400 0.08384780 0.07895780
0.07843140 0.09751330 0.08616880 0.08146600
0.08235290 0.09999450 0.08843550 0.08391810
0.08627450 0.10246700 0.09065430 0.08632790
0.09019610 0.10493200 0.09285020 0.08869500
0.09411760 0.10738100 0.09502290 0.09101910
0.09803920 0.10981100 0.09716890 0.09331360
0.10196100 0.11222900 0.09929010 0.09558350
0.10588200 0.11465700 0.10138800 0.09782610
0.10980400 0.11709900 0.10348900 0.10004300
0.11372500 0.11955200 0.10559900 0.10224600
0.11764700 0.12201000 0.10771900 0.10444300
0.12156900 0.12446600 0.10984300 0.10663300
0.12549000 0.12692400 0.11196800 0.10881600
0.12941200 0.12939600 0.11409600 0.11099200
0.13333300 0.13189400 0.11623000 0.11317500
0.13725500 0.13442100 0.11838600 0.11537900
0.14117600 0.13697900 0.12057100 0.11760300
0.14509800 0.13957000 0.12278400 0.11984500
0.14902000 0.14218800 0.12502600 0.12210400
0.15294100 0.14482900 0.12729400 0.12438200
0.15686300 0.14749500 0.12958100 0.12668600
0.16078400 0.15019300 0.13188700 0.12902800
0.16470600 0.15293300 0.13421700 0.13141000
0.16862700 0.15572100 0.13657300 0.13383100
0.17254900 0.15856700 0.13895900 0.13629200
0.17647100 0.16147600 0.14138700 0.13878800
0.18039200 0.16445300 0.14386200 0.14132200
0.18431400 0.16750200 0.14638400 0.14389800
0.18823500 0.17060600 0.14895400 0.14651700
0.19215700 0.17374700 0.15157700 0.14918600
0.19607800 0.17691700 0.15424000 0.15191200
0.20000000 0.18011700 0.15694100 0.15469200
0.20392200 0.18334900 0.15967700 0.15752600
0.20784300 0.18661300 0.16245900 0.16040000
0.21176500 0.18987900 0.16529200 0.16331200
0.21568600 0.19312300 0.16817200 0.16626100
0.21960800 0.19637300 0.17106800 0.16925300
0.22352900 0.19964000 0.17399300 0.17228500
0.22745100 0.20292500 0.17696700 0.17533400
0.23137300 0.20623300 0.17998300 0.17841400
0.23529400 0.20958100 0.18303900 0.18152900
0.23921600 0.21297400 0.18613700 0.18467700
0.24313700 0.21636800 0.18928800 0.18786400
0.24705900 0.21976100 0.19245600 0.19108500
0.25098000 0.22316100 0.19562900 0.19431600
0.25490200 0.22656700 0.19881000 0.19755200
0.25882400 0.23000400 0.20199500 0.20078800
0.26274500 0.23347800 0.20519200 0.20403200
0.26666700 0.23698900 0.20841300 0.20729300
0.27058800 0.24052200 0.21166900 0.21056500
0.27451000 0.24404800 0.21495700 0.21381900
0.27843100 0.24752100 0.21823900 0.21704900
0.28235300 0.25096400 0.22147100 0.22026200
0.28627500 0.25438800 0.22467100 0.22345500
0.29019600 0.25778400 0.22785600 0.22663000
0.29411800 0.26113100 0.23102700 0.22978900
0.29803900 0.26444100 0.23416800 0.23295000
0.30196100 0.26771300 0.23728400 0.23613400
0.30588200 0.27095700 0.24037300 0.23933200
0.30980400 0.27418000 0.24343500 0.24251200
0.31372500 0.27740700 0.24648100 0.24567200
0.31764700 0.28066700 0.24954300 0.24881700
0.32156900 0.28393600 0.25263300 0.25194700
0.32549000 0.28717600 0.25572200 0.25506500
0.32941200 0.29038500 0.25878300 0.25818900
0.33333300 0.29357100 0.26181400 0.26131600
0.33725500 0.29673400 0.26481400 0.26445500
0.34117600 0.29987800 0.26778400 0.26760900
0.34509800 0.30300400 0.27073700 0.27076000
0.34902000 0.30609300 0.27366200 0.27388700
0.35294100 0.30914500 0.27654600 0.27698300
0.35686300 0.31220200 0.27941900 0.28005900
0.36078400 0.31526200 0.28229800 0.28313500
0.36470600 0.31832300 0.28517600 0.28620900
0.36862700 0.32139500 0.28805900 0.28928300
0.37254900 0.32449200 0.29096100 0.29234600
0.37647100 0.32761700 0.29389100 0.29541200
0.38039200 0.33077600 0.29685400 0.29847700
0.38431400 0.33396100 0.29983300 0.30154100
0.38823500 0.33712500 0.30278600 0.30460100
0.39215700 0.34023600 0.30568500 0.30765800
0.39607800 0.34329700 0.30853400 0.31072500
0.40000000 0.34631500 0.31134700 0.31382600
0.40392200 0.34931300 0.31413500 0.31693500
0.40784300 0.35229700 0.31690100 0.32003800
0.41176500 0.35530600 0.31968600 0.32313500
0.41568600 0.35834000 0.32248300 0.32622200
0.41960800 0.36138800 0.32528900 0.32929800
0.42352900 0.36445300 0.32810800 0.33236600
0.42745100 0.36754600 0.33094900 0.33542600
0.43137300 0.37066200 0.33379100 0.33848900
0.43529400 0.37376100 0.33661200 0.34155400
0.43921600 0.37684200 0.33941900 0.34459500
0.44313700 0.37992800 0.34222600 0.34761800
0.44705900 0.38302300 0.34502800 0.35065300
0.45098000 0.38610900 0.34781500 0.35370100
0.45490200 0.38918100 0.35059400 0.35676400
0.45882400 0.39224500 0.35336400 0.35983900
0.46274500 0.39530000 0.35612500 0.36293600
0.46666700 0.39834700 0.35887900 0.36606100
0.47058800 0.40138700 0.36162400 0.36922600
0.47451000 0.40442000 0.36436100 0.37243500
0.47843100 0.40744500 0.36709000 0.37567200
0.48235300 0.41046300 0.36982900 0.37888200
0.48627500 0.41349000 0.37261300 0.38205900
0.49019600 0.41657900 0.37543800 0.38521200
0.49411800 0.41969800 0.37826600 0.38834800
0.49803900 0.42279900 0.38109700 0.39147900
0.50196100 0.42588300 0.38393000 0.39461000
0.50588200 0.42895000 0.38676500 0.39773900
0.50980400 0.43200100 0.38960200 0.40089100
0.51372500 0.43503400 0.39244100 0.40406400
0.51764700 0.43805200 0.39528000 0.40725400
0.52156900 0.44105000 0.39812300 0.41046100
0.52549000 0.44403200 0.40096400 0.41370000
0.52941200 0.44699500 0.40381800 0.41697000
0.53333300 0.44995400 0.40668900 0.42023100
0.53725500 0.45291200 0.40955500 0.42348500
0.54117600 0.45585300 0.41241600 0.42675700
0.54509800 0.45877000 0.41529800 0.43005300
0.54902000 0.46167700 0.41820900 0.43336900
0.55294100 0.46460600 0.42115400 0.43669600
0.55686300 0.46755800 0.42414100 0.44004500
0.56078400 0.47054700 0.42715800 0.44341200
0.56470600 0.47357300 0.43014500 0.44680500
0.56862700 0.47662300 0.43309400 0.45022100
0.57254900 0.47964600 0.43602000 0.45365700
0.57647100 0.48264000 0.43893100 0.45711100
0.58039200 0.48561900 0.44182100 0.46058100
0.58431400 0.48860500 0.44469400 0.46406900
0.58823500 0.49159300 0.44757600 0.46759900
0.59215700 0.49458000 0.45046000 0.47115800
0.59607800 0.49758700 0.45334200 0.47471100
0.60000000 0.50060500 0.45622400 0.47825900
0.60392200 0.50361700 0.45910600 0.48180200
0.60784300 0.50662700 0.46197400 0.48534100
0.61176500 0.50964000 0.46483400 0.48888200
0.61568600 0.51265200 0.46771600 0.49242700
0.61960800 0.51564400 0.47062400 0.49596900
0.62352900 0.51862300 0.47355300 0.49951200
0.62745100 0.52161900 0.47651400 0.50304700
0.63137300 0.52462900 0.47951300 0.50658900
0.63529400 0.52765000 0.48256300 0.51014400
0.63921600 0.53069400 0.48567700 0.51368100
0.64313700 0.53377500 0.48886700 0.51719500
0.64705900 0.53690200 0.49213600 0.52071100
0.65098000 0.54008400 0.49548700 0.52424600
0.65490200 0.54333600 0.49885900 0.52780200
0.65882400 0.54666600 0.50213100 0.53139700
0.66274500 0.55008000 0.50529700 0.53502700
0.66666700 0.55358100 0.50836700 0.53864000
0.67058800 0.55708100 0.51135900 0.54222500
0.67451000 0.56048600 0.51429000 0.54580200
0.67843100 0.56379900 0.51717700 0.54939700
0.68235300 0.56702700 0.52003000 0.55301100
0.68627500 0.57017700 0.52286400 0.55664800
0.69019600 0.57326600 0.52568700 0.56030800
0.69411800 0.57630700 0.52849400 0.56397500
0.69803900 0.57931400 0.53130000 0.56763500
0.70196100 0.58229900 0.53413400 0.57128700
0.70588200 0.58527700 0.53699300 0.57493400
0.70980400 0.58824700 0.53987800 0.57855900
0.71372500 0.59120400 0.54278200 0.58216300
0.71764700 0.59417700 0.54568700 0.58578000
0.72156900 0.59716700 0.54860100 0.58942100
0.72549000 0.60017200 0.55152200 0.59307800
0.72941200 0.60320100 0.55445000 0.59676500
0.73333300 0.60624200 0.55738900 0.60048600
0.73725500 0.60928500 0.56034200 0.60425100
0.74117600 0.61234000 0.56328400 0.60807400
0.74509800 0.61540300 0.56621500 0.61198100
0.74902000 0.61847000 0.56913700 0.61599500
0.75294100 0.62154100 0.57205700 0.62012200
0.75686300 0.62463900 0.57496400 0.62433100
0.76078400 0.62774500 0.57785300 0.62845400
0.76470600 0.63085400 0.58074800 0.63247300
0.76862700 0.63396100 0.58365900 0.63639500
0.77254900 0.63707000 0.58659200 0.64024900
0.77647100 0.64017500 0.58956000 0.64406300
0.78039200 0.64325600 0.59257000 0.64785200
0.78431400 0.64632500 0.59561700 0.65162600
0.78823500 0.64941300 0.59863500 0.65539500
0.79215700 0.65252600 0.60159600 0.65918300
0.79607800 0.65567300 0.60450400 0.66298800
0.80000000 0.65886000 0.60737100 0.66682500
0.80392200 0.66209000 0.61020600 0.67072300
0.80784300 0.66535400 0.61301900 0.67467700
0.81176500 0.66858400 0.61580800 0.67869600
0.81568600 0.67176400 0.61857400 0.68275400
0.81960800 0.67490000 0.62134400 0.68683700
0.82352900 0.67800500 0.62412300 0.69095000
0.82745100 0.68109100 0.62691300 0.69509000
0.83137300 0.68417700 0.62971100 0.69925400
0.83529400 0.68725900 0.63253100 0.70345600
0.83921600 0.69033200 0.63538200 0.70768000
0.84313700 0.69342100 0.63826300 0.71192100
0.84705900 0.69653600 0.64111900 0.71617700
0.85098000 0.69967400 0.64393100 0.72044300
0.85490200 0.70283000 0.64671100 0.72470200
0.85882400 0.70602300 0.64946300 0.72900100
0.86274500 0.70926600 0.65219800 0.73336200
0.86666700 0.71255300 0.65493900 0.73779700
0.87058800 0.71582200 0.65768200 0.74234500
0.87451000 0.71906400 0.66043300 0.74702700
0.87843100 0.72228800 0.66317600 0.75173400
0.88235300 0.72550200 0.66588600 0.75641900
0.88627500 0.72873600 0.66857100 0.76111400
0.89019600 0.73200200 0.67124200 0.76585600
0.89411800 0.73530900 0.67391300 0.77067900
0.89803900 0.73865900 0.67658500 0.77558100
0.90196100 0.74200100 0.67924000 0.78055800
0.90588200 0.74533700 0.68187800 0.78560400
0.90980400 0.74867800 0.68450900 0.79072000
0.91372500 0.75204400 0.68714100 0.79592900
0.91764700 0.75543400 0.68976200 0.80126300
0.92156900 0.75882300 0.69237600 0.80661300
0.92549000 0.76221300 0.69498900 0.81198200
0.92941200 0.76563000 0.69759400 0.81739200
0.93333300 0.76905500 0.70019600 0.82291400
0.93725500 0.77247600 0.70279300 0.82857000
0.94117600 0.77590500 0.70538600 0.83430900
0.94509800 0.77933600 0.70797200 0.84004700
0.94902000 0.78278000 0.71055000 0.84584800
0.95294100 0.78623500 0.71312300 0.85174100
0.95686300 0.78969900 0.71568600 0.85766100
0.96078400 0.79317900 0.71823800 0.86368200
0.96470600 0.79667500 0.72077700 0.86979900
0.96862700 0.80018800 0.72330500 0.87605200
0.97254900 0.80372200 0.72582000 0.88247400
0.97647100 0.80727700 0.72832400 0.88908000
0.98039200 0.81085400 0.73081600 0.89587400
0.98431400 0.81445100 0.73329700 0.90284900
0.98823500 0.81807000 0.73576600 0.90997500
0.99215700 0.82171000 0.73822400 0.91724900
0.99607800 0.82537200 0.74067000 0.92467500
1.00000000 0.82905500 0.74310500 0.93226000
END_DATA
