CTI3   

DESCRIPTOR "Argyll Calibration Target chart information 3"
ORIGINATOR "Argyll dispread"
CREATED "Sat Aug 20 16:59:28 2022"
DEVICE_CLASS "DISPLAY"
SINGLE_DIM_STEPS "21"
COMP_GREY_STEPS "61"
DARK_REGION_EMPHASIS "1.6"
COLOR_REP "RGB_XYZ"
TARGET_INSTRUMENT "X-Rite i1 DisplayPro, ColorMunki Display"
DISPLAY_TYPE_REFRESH "NO"
DISPLAY_TYPE_BASE_ID "1"
INSTRUMENT_TYPE_SPECTRAL "NO"
LUMINANCE_XYZ_CDM2 "72.038059 75.504042 82.551853"
NORMALIZED_TO_Y_100 "YES"
VIDEO_LUT_CALIBRATION_POSSIBLE "YES"

BEGIN_ARGYLL_COLPROF_ARGS
-v -qh -aX -bn -C "No copyright. Created with DisplayCAL 3.8.9.3 and ArgyllCMS 2.1.2" -M "KOIOS K2721UG"
END_ARGYLL_COLPROF_ARGS

OBSERVER "1931_2"
USE_BLACK_POINT_COMPENSATION "NO"
BLACK_POINT_CORRECTION "0.0"
HIRES_B2A "YES"
HIRES_B2A_SIZE "-1"
SMOOTH_B2A "YES"
PATCH_SEQUENCE "OPTIMIZE_DISPLAY_RESPONSE_DELAY"

NUMBER_OF_FIELDS 7
BEGIN_DATA_FORMAT
SAMPLE_ID RGB_R RGB_G RGB_B XYZ_X XYZ_Y XYZ_Z
END_DATA_FORMAT

NUMBER_OF_SETS 588
BEGIN_DATA
1 100.0000 100.0000 100.0000 95.40954 100.00000 109.3343
2 1.960800 1.960800 1.960800 0.203254 0.215290 0.257093
3 3.921600 3.921600 3.921600 0.366768 0.374468 0.459886
4 5.882400 5.882400 5.882400 0.546368 0.574755 0.683945
5 9.803900 9.803900 9.803900 1.009064 1.049435 1.250148
6 13.72600 13.72600 13.72600 1.647590 1.706285 2.045843
7 17.64700 17.64700 17.64700 2.638802 2.775072 3.133913
8 21.56900 21.56900 21.56900 3.728298 3.935490 4.424381
9 25.49000 25.49000 25.49000 5.059905 5.305633 5.907708
10 29.41200 29.41200 29.41200 6.729140 7.068990 7.858386
11 33.33300 33.33300 33.33300 8.725390 9.131079 10.06969
12 37.25500 37.25500 37.25500 10.85059 11.38167 12.54622
13 41.17600 41.17600 41.17600 13.43327 14.15677 15.33554
14 45.09800 45.09800 45.09800 16.27525 17.05402 18.70751
15 49.02000 49.02000 49.02000 19.42049 20.47199 22.15201
16 52.94100 52.94100 52.94100 23.07633 24.35042 26.39436
17 56.86300 56.86300 56.86300 27.35264 28.72690 30.85772
18 60.78400 60.78400 60.78400 31.74051 33.31831 36.37416
19 64.70600 64.70600 64.70600 36.31311 37.90011 41.83932
20 68.62700 68.62700 68.62700 41.29915 43.22148 47.31309
21 72.54900 72.54900 72.54900 46.54550 48.94275 53.22473
22 76.47100 76.47100 76.47100 51.87909 54.66683 59.54746
23 80.39200 80.39200 80.39200 58.28241 61.12054 67.12771
24 84.31400 84.31400 84.31400 64.80825 68.22215 74.46465
25 88.23500 88.23500 88.23500 71.35715 75.26778 81.54797
26 92.15700 92.15700 92.15700 78.63160 82.81062 90.14250
27 96.07800 96.07800 96.07800 86.53250 91.09992 99.74928
28 82.07790 31.39870 100.0000 52.02453 26.59674 104.4855
29 100.0000 48.03860 100.0000 72.87280 42.94988 105.1966
30 58.23890 74.09770 51.96100 33.49453 44.60020 26.89751
31 100.0000 88.32320 54.89040 73.92921 77.54247 31.52296
32 22.07500 40.23340 0.000000 5.665293 10.41046 0.844381
33 40.43310 54.27180 54.21580 18.45631 22.80967 27.47928
34 49.90430 64.88310 58.94730 26.72054 33.53158 33.94926
35 100.0000 64.14480 100.0000 77.94542 55.94953 106.0925
36 4.807700 0.000000 0.000000 0.271771 0.188481 0.143893
37 7.425700 0.000000 0.000000 0.409592 0.252231 0.158592
38 10.20410 0.000000 0.000000 0.575356 0.328920 0.172325
39 13.15790 0.000000 0.000000 0.858476 0.460904 0.189946
40 16.30430 0.000000 0.000000 1.169911 0.606043 0.201919
41 19.66290 0.000000 0.000000 1.595039 0.803671 0.213090
42 23.25580 0.000000 0.000000 2.145495 1.060078 0.221932
43 27.10840 0.000000 0.000000 2.866364 1.396205 0.230771
44 31.25000 0.000000 0.000000 3.806871 1.835081 0.240474
45 35.71430 0.000000 0.000000 4.983702 2.383857 0.252345
46 43.08150 0.000000 0.000000 7.288600 3.457992 0.275134
47 45.77470 0.000000 0.000000 8.315464 3.937492 0.285478
48 51.47060 0.000000 0.000000 10.62029 5.011999 0.308206
49 57.69230 0.000000 0.000000 13.88695 6.535047 0.340126
50 64.51610 0.000000 0.000000 17.84496 8.378758 0.379243
51 72.03390 0.000000 0.000000 22.53079 10.56249 0.426356
52 80.35710 0.000000 0.000000 28.67095 13.43231 0.489483
53 89.62260 0.000000 0.000000 36.68495 17.16564 0.567193
54 100.0000 34.68400 0.000000 50.43834 29.25607 1.140496
55 100.0000 48.32630 16.00260 53.69200 36.52184 3.971072
56 0.000000 4.807700 0.000000 0.200552 0.345416 0.186031
57 0.000000 7.425700 0.000000 0.281245 0.547482 0.218024
58 0.000000 10.20410 0.000000 0.387521 0.813349 0.245629
59 0.000000 13.15790 0.000000 0.546846 1.220576 0.276995
60 0.000000 16.30430 0.000000 0.739103 1.708181 0.310251
61 0.000000 19.66290 0.000000 0.999399 2.370836 0.353777
62 0.000000 23.25580 0.000000 1.301655 3.135133 0.404349
63 0.000000 27.10840 0.000000 1.738379 4.246863 0.477794
64 0.000000 31.25000 0.000000 2.315742 5.713387 0.575309
65 0.000000 35.71430 0.000000 2.973319 7.381023 0.685475
66 0.000000 40.54050 0.000000 3.799642 9.476728 0.823578
67 0.000000 45.77470 0.000000 4.917236 12.32123 1.009048
68 0.000000 51.47060 0.000000 6.307517 15.85491 1.244089
69 0.000000 57.69230 0.000000 8.177239 20.73804 1.563783
70 0.000000 64.51610 0.000000 10.44018 26.39143 1.935655
71 0.000000 72.03390 0.000000 13.36059 33.78231 2.423462
72 0.000000 74.62380 24.13860 15.38629 36.75108 7.545713
73 85.50370 100.0000 47.33070 64.83361 87.70727 25.11481
74 100.0000 100.0000 50.88150 80.07166 94.81567 28.44490
75 0.000000 0.000000 2.336400 0.130003 0.120130 0.248902
76 0.000000 0.000000 4.807700 0.170551 0.133783 0.464772
77 0.000000 0.000000 7.425700 0.231509 0.154756 0.789111
78 0.000000 0.000000 10.20410 0.294752 0.176432 1.117722
79 0.000000 0.000000 13.15790 0.420117 0.218816 1.760377
80 0.000000 0.000000 16.30430 0.563710 0.267836 2.509272
81 0.000000 0.000000 19.66290 0.727077 0.323501 3.377955
82 0.000000 0.000000 23.25580 0.942522 0.397209 4.517744
83 0.000000 0.000000 27.10840 1.256228 0.504291 6.170817
84 0.000000 0.000000 31.25000 1.660396 0.642898 8.319653
85 0.000000 0.000000 35.71430 2.118989 0.798688 10.74527
86 0.000000 0.000000 40.54050 2.686635 0.992122 13.74677
87 0.000000 0.000000 45.77470 3.508692 1.272343 18.10122
88 0.000000 0.000000 51.47060 4.396781 1.575033 22.76304
89 0.000000 0.000000 57.69230 5.811129 2.057622 30.21383
90 0.000000 0.000000 64.51610 7.509928 2.637423 39.19151
91 0.000000 0.000000 72.03390 9.442567 3.294361 49.36272
92 0.000000 0.000000 80.35710 12.06943 4.181241 63.18888
93 0.000000 0.000000 89.62260 15.26002 5.272542 80.02257
94 32.18100 0.000000 100.0000 23.74975 8.649778 103.6096
95 30.61630 50.62980 100.0000 29.70339 24.19420 105.0382
96 39.24070 63.33040 100.0000 35.98843 35.26376 105.6315
97 47.29830 80.11630 100.0000 45.93092 54.24612 106.8052
98 63.22460 100.0000 100.0000 64.90389 85.73681 108.8061
99 0.000000 61.52170 65.21550 17.23673 26.79208 41.67713
100 0.000000 67.43330 83.52260 24.65886 33.94915 70.79595
101 5.663400 5.663400 5.663400 0.521043 0.534728 0.637622
102 6.535900 6.535900 6.535900 0.630898 0.671753 0.780920
103 7.425700 7.425700 7.425700 0.714846 0.738652 0.891469
104 8.333300 8.333300 8.333300 0.822975 0.856040 1.006194
105 9.259300 9.259300 9.259300 0.969088 1.028284 1.191389
106 10.20410 10.20410 10.20410 1.051452 1.106169 1.251987
107 11.16840 11.16840 11.16840 1.179380 1.240401 1.390504
108 12.15280 12.15280 12.15280 1.352771 1.403448 1.652038
109 13.15790 13.15790 13.15790 1.629712 1.700836 1.951947
110 14.18440 14.18440 14.18440 1.727700 1.805464 2.053935
111 15.23300 15.23300 15.23300 2.043734 2.142588 2.397939
112 16.30430 16.30430 16.30430 2.286309 2.392439 2.751248
113 17.39930 17.39930 17.39930 2.514200 2.642185 3.008489
114 18.51850 18.51850 18.51850 2.841129 2.950077 3.287269
115 19.66290 19.66290 19.66290 3.157900 3.335399 3.691862
116 20.83330 20.83330 20.83330 3.535076 3.673796 4.129941
117 22.03070 22.03070 22.03070 3.885964 4.101213 4.590914
118 23.25580 23.25580 23.25580 4.245781 4.447923 4.900168
119 24.50980 24.50980 24.50980 4.637264 4.916810 5.408351
120 25.79360 25.79360 25.79360 5.239274 5.494951 6.096913
121 27.10840 27.10840 27.10840 5.755891 6.043185 6.659030
122 28.45530 28.45530 28.45530 6.416880 6.806919 7.485742
123 29.83540 29.83540 29.83540 6.928240 7.273385 8.072807
124 31.25000 31.25000 31.25000 7.737925 8.153490 8.954629
125 32.70040 32.70040 32.70040 8.284191 8.657271 9.604693
126 34.18800 34.18800 34.18800 9.172441 9.602053 10.56120
127 35.71430 35.71430 35.71430 10.09129 10.59281 11.55621
128 37.28070 37.28070 37.28070 10.85406 11.38441 12.56462
129 38.88890 38.88890 38.88890 11.82591 12.43977 13.61011
130 40.54050 40.54050 40.54050 12.87097 13.55023 14.73902
131 42.23740 42.23740 42.23740 14.22703 14.84949 16.52470
132 43.98150 43.98150 43.98150 15.37718 16.08716 17.75748
133 45.77470 45.77470 45.77470 16.83325 17.67934 19.38812
134 47.61910 47.61910 47.61910 18.23741 19.08592 20.75486
135 49.51690 49.51690 49.51690 19.77781 20.85200 22.57095
136 51.47060 51.47060 51.47060 21.55900 22.70358 24.37750
137 53.48260 53.48260 53.48260 23.54027 24.77988 26.88040
138 55.55560 55.55560 55.55560 25.95541 27.33407 29.46915
139 57.69230 57.69230 57.69230 28.27407 29.74648 32.35803
140 59.89580 59.89580 59.89580 30.72229 32.20411 35.29933
141 62.16930 62.16930 62.16930 33.18555 34.81643 38.47623
142 64.51610 64.51610 64.51610 36.23821 37.80725 41.80474
143 66.93990 66.93990 66.93990 39.08232 41.15631 44.84140
144 69.44440 69.44440 69.44440 42.16045 44.30214 48.45464
145 72.03390 72.03390 72.03390 45.66475 48.08857 52.33793
146 74.71260 74.71260 74.71260 49.76563 52.36685 57.12947
147 77.48540 77.48540 77.48540 53.95044 56.84311 61.92304
148 80.35710 80.35710 80.35710 58.19213 60.97174 67.21331
149 83.33330 83.33330 83.33330 62.63229 65.69255 72.25880
150 86.41970 86.41970 86.41970 67.62113 71.21211 78.31612
151 89.62260 89.62260 89.62260 74.07403 77.83175 84.87294
152 92.94870 92.94870 92.94870 79.61920 83.59004 91.68088
153 96.40520 96.40520 96.40520 87.27593 91.81063 100.7632
154 0.000000 15.16510 27.62230 1.863328 1.954509 6.569044
155 0.000000 42.03280 100.0000 23.88238 17.22243 104.5067
156 0.000000 56.67440 100.0000 27.76675 27.11379 105.1169
157 0.000000 69.33390 100.0000 32.07650 38.07967 105.9904
158 100.0000 86.49770 87.02870 82.23305 78.51106 79.22210
159 100.0000 100.0000 88.65780 90.55724 98.38312 83.70766
160 12.42590 9.712100 0.000000 1.031672 1.079309 0.252852
161 26.21530 11.33890 0.000000 3.057440 2.186198 0.287380
162 43.91940 19.07650 18.06270 9.109209 6.048573 3.244149
163 52.65820 46.95840 27.42860 17.80238 19.00009 7.584606
164 0.000000 100.0000 0.000000 27.88634 70.79079 4.864197
165 36.78360 100.0000 0.000000 33.19924 73.21550 4.918794
166 60.37980 100.0000 0.000000 43.43403 78.08334 5.024267
167 80.55630 100.0000 0.000000 56.83708 84.31596 5.155789
168 100.0000 100.0000 27.41130 76.88708 93.57666 11.92514
169 34.07890 0.000000 74.74320 14.86302 5.716940 54.11067
170 41.15220 31.79460 74.12360 19.14531 12.60572 53.40582
171 52.08740 54.39650 82.69450 31.40795 28.14951 69.08506
172 0.000000 12.50920 36.26190 2.562939 1.795686 11.14510
173 0.000000 16.82150 56.11460 6.086582 3.628875 28.28161
174 0.000000 21.55580 78.36530 12.49046 6.690208 59.95249
175 28.40300 35.48550 78.68740 17.52255 12.75365 61.23593
176 52.86520 41.81320 100.0000 35.60590 22.79826 104.6728
177 60.27000 55.77400 100.0000 43.14527 33.66091 105.4951
178 100.0000 77.62720 100.0000 83.44124 69.58964 107.2445
179 100.0000 88.79430 100.0000 88.67402 82.73313 108.1404
180 26.57560 0.000000 18.01660 3.342478 1.553067 3.013780
181 57.12330 0.000000 18.83570 14.38761 6.696316 3.400446
182 100.0000 0.000000 16.20060 48.24464 22.49391 3.021177
183 100.0000 0.000000 30.98110 49.24547 22.82590 8.830445
184 100.0000 26.89860 34.56890 51.31188 27.26024 11.19349
185 100.0000 35.33370 48.85180 54.58494 31.04642 22.23510
186 61.46280 31.38910 0.000000 18.36073 13.29682 0.741539
187 69.53420 32.44750 44.65760 26.57918 17.03590 18.18033
188 0.000000 0.000000 0.000000 0.106448 0.111503 0.121634
189 0.000000 2.336400 0.000000 0.142464 0.202528 0.151811
190 74.91210 24.07570 0.000000 25.82489 14.82573 0.666622
191 100.0000 100.0000 100.0000 95.36758 99.90102 109.3333
192 0.000000 80.35710 0.000000 16.85199 42.71262 3.012985
193 0.000000 89.62260 0.000000 21.68057 54.71257 3.806360
194 0.000000 100.0000 27.78670 29.13920 71.19631 11.45837
195 0.000000 100.0000 85.31040 41.83857 75.70399 77.77910
196 0.000000 0.000000 100.0000 19.80289 6.782123 103.8903
197 0.000000 23.99290 100.0000 21.12700 10.12884 104.1780
198 25.30180 36.37080 100.0000 25.38285 15.71428 104.4584
199 29.15380 69.43270 100.0000 35.45494 39.84174 106.2200
200 83.18950 89.18610 100.0000 72.35347 75.47777 108.0164
201 100.0000 61.85160 25.82870 58.40712 47.19136 8.058872
202 100.0000 75.81830 40.28050 65.27379 61.00451 17.31237
203 21.83570 18.61190 0.000000 2.736665 2.961875 0.355199
204 36.40610 21.89520 0.000000 6.283430 5.312205 0.442945
205 62.04250 30.12000 66.51550 26.81178 15.90168 43.15080
206 77.10870 49.61750 100.0000 52.39957 34.43221 105.3666
207 18.58260 0.000000 28.67890 2.790290 1.199761 7.067754
208 75.39200 0.000000 37.59860 27.21668 12.47507 12.42884
209 78.49010 30.79110 37.85010 31.83516 19.23322 13.24566
210 85.33520 51.55340 54.74090 44.77545 33.59952 28.79117
211 100.0000 72.93870 72.17370 71.31612 61.07235 53.17060
212 100.0000 86.98010 73.12630 78.14242 77.69981 55.61093
213 40.54050 0.000000 0.000000 6.365724 3.028484 0.266779
214 49.25570 17.76710 0.000000 10.61511 6.564172 0.427550
215 67.34740 48.55810 0.000000 25.26227 23.41762 1.333775
216 80.89020 58.04040 24.85780 38.73469 35.23483 7.097895
217 100.0000 57.89290 55.92130 61.69808 45.60265 30.78338
218 36.15760 0.000000 33.95000 7.039626 3.112754 10.03688
219 43.13930 0.000000 52.15040 11.95262 5.066551 24.20273
220 100.0000 0.000000 59.42970 54.04330 24.47405 33.59123
221 100.0000 29.93450 69.76530 58.70878 30.59705 47.78681
222 100.0000 52.14890 81.78550 66.97809 43.51361 68.29581
223 0.000000 0.000000 0.000000 0.106631 0.111760 0.121992
224 15.00650 22.70260 0.000000 2.175021 3.470160 0.408186
225 54.43930 50.09270 0.000000 18.33085 20.98610 1.325033
226 54.14220 60.45240 77.32400 32.42384 32.79071 59.83449
227 32.33060 22.52390 100.0000 25.01333 11.60047 104.1433
228 60.00120 26.11340 100.0000 36.74491 17.99831 104.5747
229 29.08730 38.85320 42.40960 9.717305 11.37885 16.33904
230 38.09570 48.40890 41.17990 13.98275 17.64094 15.65606
231 50.20070 75.11040 44.34190 28.44271 43.61167 19.96793
232 86.85210 100.0000 69.03650 70.68440 89.83898 51.14660
233 100.0000 100.0000 73.41340 85.67470 96.70867 57.57706
234 0.000000 44.94870 30.08120 6.247728 12.48403 8.659546
235 33.16950 57.46150 33.00360 14.45303 23.67763 10.88524
236 53.74600 100.0000 76.47900 50.80050 80.20552 61.60866
237 86.73290 100.0000 87.40500 76.35038 91.84717 81.29808
238 86.93450 100.0000 100.0000 82.21568 93.91281 109.4339
239 39.17180 100.0000 44.16900 37.39020 75.02617 22.24219
240 56.10300 100.0000 58.82740 47.56026 79.34405 37.40738
241 0.000000 85.42430 100.0000 39.36109 56.28396 107.4434
242 31.53320 88.77250 100.0000 44.77240 62.13992 107.7107
243 100.0000 100.0000 100.0000 95.52775 100.0449 109.3333
244 26.28120 40.45100 54.19640 11.52709 12.65411 27.02418
245 63.15830 52.77620 70.42250 33.12791 28.49437 49.51084
246 17.40800 6.984100 10.01250 1.673628 1.181376 1.249993
247 25.17170 11.65680 20.38380 3.531758 2.329507 3.899004
248 0.000000 9.732200 13.95770 0.705130 0.887535 1.997748
249 0.000000 19.86580 15.26730 1.409446 2.534008 2.443066
250 29.96600 32.70620 24.96010 6.893091 8.095684 5.946694
251 71.84070 41.08290 28.26840 27.71218 21.04370 7.872813
252 100.0000 85.46560 26.47300 68.51445 72.49050 10.12946
253 77.66710 80.51790 0.000000 43.71221 55.52907 3.302342
254 100.0000 80.08670 0.000000 64.77833 65.48925 3.533989
255 100.0000 100.0000 0.000000 75.72537 93.36935 5.367168
256 0.000000 25.89900 51.96400 6.150000 5.469601 24.34821
257 0.000000 34.80960 76.29590 13.53405 10.80128 56.73347
258 0.000000 46.23220 78.50930 16.44616 16.66287 60.81467
259 59.08170 66.43930 100.0000 46.14305 42.46767 106.3524
260 81.35510 78.34700 100.0000 65.91558 61.94148 107.3840
261 3.144700 3.144700 3.144700 0.295967 0.304187 0.352323
262 3.968300 3.968300 3.968300 0.366995 0.374494 0.460084
263 4.807700 4.807700 4.807700 0.436718 0.449490 0.541288
264 40.84140 22.80530 28.79040 9.077883 6.558159 7.403119
265 41.36920 65.79390 30.08070 19.18519 31.61400 9.896906
266 64.67950 69.33740 36.98860 32.74767 40.68414 14.10572
267 89.47370 85.46990 46.34020 59.65544 67.87354 22.74578
268 31.47420 59.65630 0.000000 12.63801 24.16367 1.711028
269 32.13200 77.83400 0.000000 19.89206 41.96093 2.887388
270 0.000000 52.62820 21.08150 7.425026 17.07116 5.188210
271 0.000000 54.79990 77.51200 18.46315 22.44414 59.62245
272 0.000000 100.0000 100.0000 47.69860 77.56425 108.6802
273 100.0000 0.000000 0.000000 47.65347 22.28840 0.685494
274 100.0000 0.000000 44.73590 50.98606 23.42651 18.04787
275 100.0000 0.000000 78.51620 59.07137 26.17933 60.57437
276 100.0000 27.81620 100.0000 69.63586 33.82711 105.3445
277 0.000000 75.83370 41.46260 17.59702 38.52883 17.37726
278 0.000000 100.0000 47.27770 31.78308 72.15046 24.54293
279 0.000000 100.0000 65.35600 35.90932 73.72833 45.82909
280 25.82950 100.0000 74.84410 41.13115 75.93612 59.67118
281 35.58380 100.0000 100.0000 52.98735 80.19897 109.1470
282 53.24000 0.000000 32.42390 13.41177 6.104950 9.235513
283 58.21760 0.000000 49.13960 18.25109 8.080906 21.08328
284 77.74980 0.000000 55.70140 32.06359 14.34676 28.17632
285 76.52690 56.14780 55.03090 38.75592 33.63487 28.96177
286 88.43990 66.39590 58.50430 53.09058 47.32958 34.19797
287 0.764500 0.764500 0.764500 0.125528 0.131900 0.145570
288 1.543200 1.543200 1.543200 0.173552 0.178147 0.208179
289 2.336400 2.336400 2.336400 0.226586 0.239307 0.286402
290 25.22480 0.000000 50.90540 6.756790 2.678808 22.64350
291 55.98670 0.000000 100.0000 33.03041 12.96029 104.0435
292 100.0000 0.000000 100.0000 67.36449 28.97186 104.2908
293 76.61400 0.000000 75.10660 36.11878 15.59050 55.21000
294 77.81530 0.000000 100.0000 46.49306 19.24142 103.9431
295 29.75030 25.33360 43.50030 8.095489 6.477544 16.90658
296 33.77270 34.60910 43.22420 10.31439 10.13416 16.81810
297 44.09300 45.49310 65.69880 20.49337 18.70169 42.40783
298 0.000000 29.82950 42.01300 4.969626 6.149500 15.66220
299 0.000000 45.79720 54.88570 10.07379 14.21662 27.82764
300 0.000000 72.36920 63.41470 20.86501 36.99595 40.35493
301 38.12700 87.46680 62.41850 33.33714 57.35352 40.38430
302 100.0000 58.94290 0.000000 56.36197 44.10879 2.122268
303 100.0000 61.11770 42.35500 60.34929 47.52153 18.09764
304 31.91620 32.85230 0.000000 6.383339 8.073148 0.652114
305 40.25920 50.79940 0.000000 12.58747 18.74208 1.305148
306 57.58790 64.50700 0.000000 24.49009 33.19964 2.096253
307 60.33330 100.0000 31.45050 45.23008 78.79928 13.58786
308 69.27310 100.0000 49.72770 53.22911 82.33372 27.09073
309 42.82160 87.15720 18.44130 28.20631 55.31042 6.679844
310 51.39220 86.80840 37.34830 33.26962 56.98829 15.60312
311 46.53340 67.22230 9.067300 20.44840 33.25669 3.114744
312 89.06740 68.90930 47.96850 52.36465 49.39171 22.77301
313 100.0000 74.40840 58.89320 68.44503 61.36445 35.53926
314 52.49630 43.52750 48.47960 19.77924 17.88612 21.67927
315 60.25890 45.70010 57.32450 26.29962 21.86510 31.35931
316 19.59990 13.72780 24.50640 3.012074 2.272016 5.245259
317 23.07380 23.38780 33.65960 5.290709 4.916591 10.06085
318 53.52210 59.22100 52.06520 25.16140 29.28204 26.03012
319 80.05290 70.42260 56.25420 47.04393 48.17057 31.18993
320 66.23240 57.75540 15.19470 27.64383 30.10302 3.910074
321 84.17210 66.21590 19.38730 43.85387 43.59971 5.669051
322 86.58510 82.00270 26.70240 52.92610 61.71196 9.667372
323 80.51130 88.33500 32.23560 51.83478 67.62434 12.98409
324 82.76010 91.06410 53.52990 58.21901 73.16909 30.41020
325 88.76990 96.60190 77.61150 72.93073 86.01092 63.88479
326 39.82320 18.42280 7.813000 7.231107 5.054370 1.124004
327 91.03710 26.68360 4.922900 39.49751 21.83674 1.242755
328 100.0000 28.32310 16.62950 50.04849 27.20177 3.487688
329 34.21610 22.93580 14.53520 6.151094 5.305063 2.331029
330 35.00690 41.13180 14.39090 9.157989 12.43292 2.806683
331 44.51300 49.35340 35.50170 15.89195 19.26101 12.12593
332 24.35600 33.98020 20.98170 5.738804 8.128392 4.572783
333 39.77230 39.84560 23.71850 10.78207 12.62015 5.555069
334 85.31420 57.09530 35.56320 43.48420 37.02568 12.86848
335 80.90180 45.32290 0.000000 34.17173 25.98824 1.300912
336 91.40690 45.51480 25.99570 44.07469 30.57224 7.120397
337 100.0000 45.22570 35.73020 54.65771 35.24683 12.48158
338 64.42550 26.26710 9.069000 19.48435 12.37306 1.544689
339 82.09270 31.38920 15.50440 32.70497 19.98907 3.128057
340 85.92590 58.63600 4.853500 41.68508 37.28590 2.323705
341 100.0000 70.70260 16.53190 61.10733 55.39717 5.377690
342 0.000000 0.000000 0.000000 0.106705 0.111743 0.122066
343 0.000000 31.39590 15.79680 2.753155 5.915500 2.774193
344 62.72180 46.88890 15.54260 22.41434 21.26904 3.486332
345 66.81400 54.36260 42.87410 29.52282 28.47861 17.58461
346 77.89950 53.90250 44.03260 37.46705 31.75265 18.51541
347 56.88900 90.06420 13.38850 35.96034 62.14504 5.708839
348 64.85520 91.51050 58.52240 46.91593 68.14479 35.97469
349 100.0000 100.0000 100.0000 95.36758 99.90102 109.3333
350 48.64570 34.76050 0.000000 12.30107 11.54338 0.763026
351 63.51380 38.15070 14.55830 20.98330 16.65361 2.829422
352 79.42340 45.62570 16.22630 33.51498 25.66273 3.644564
353 12.85480 17.50760 7.417300 1.696432 2.382058 1.004608
354 23.41560 22.63090 15.13720 3.822853 4.205851 2.519838
355 28.23970 76.19730 20.69970 18.80333 39.70146 6.516585
356 51.58170 79.58540 20.74860 28.36609 47.78599 6.914311
357 13.79830 47.69140 63.27490 13.36406 16.58839 38.48914
358 32.82020 48.15780 85.53900 23.74415 20.81971 73.86147
359 0.000000 38.26420 60.14560 9.731560 10.75432 33.87033
360 19.51710 57.57860 68.70060 18.43299 24.74394 46.28875
361 20.64160 65.29400 83.93350 25.66874 32.44966 71.51042
362 21.18910 77.98080 100.0000 37.46914 47.97995 106.5777
363 62.41570 77.67720 100.0000 52.37884 54.94904 106.7184
364 31.63310 18.49700 53.30120 9.592803 5.582595 25.62564
365 54.74340 19.84790 71.14870 22.72542 11.41861 48.77244
366 60.07120 44.09870 85.08470 33.64476 23.37098 73.24952
367 6.678500 9.354100 22.59840 1.444910 1.174505 4.559002
368 13.35120 23.20110 22.58280 2.913132 3.826584 4.748374
369 14.97300 24.40580 30.54380 3.878524 4.488291 8.338764
370 26.11240 52.81180 53.88570 14.39299 20.21894 27.07337
371 25.56020 64.11270 65.91870 20.78558 30.18385 43.24067
372 0.000000 50.00430 45.97640 9.518165 16.42057 19.36668
373 16.88830 57.02450 45.95200 12.67825 22.09612 19.85401
374 77.29510 58.22450 68.90260 43.50993 36.49659 47.33286
375 14.63900 5.212500 22.79910 1.893366 1.061103 4.542880
376 14.48180 16.59310 33.12400 3.358751 2.738265 9.479722
377 16.26690 30.11530 41.78250 6.097741 6.839637 15.79056
378 26.16560 33.24030 53.78520 10.15420 9.415934 26.31832
379 37.74770 33.60910 62.43850 15.13307 11.64195 37.10492
380 52.86390 41.91150 70.69150 24.83760 19.07353 48.77221
381 13.52970 0.000000 12.69080 1.142842 0.559047 1.649481
382 39.13530 0.000000 16.10690 6.450995 3.013502 2.568388
383 40.99190 11.71200 25.68410 8.105095 4.420590 5.793284
384 54.33990 18.49880 25.37920 14.20936 8.205943 5.945499
385 53.87680 26.37650 36.06970 15.70213 10.37836 11.68187
386 69.22950 42.14390 66.38560 33.13209 23.12857 43.14642
387 69.23150 53.42760 82.52130 40.89537 31.93486 68.75186
388 50.78930 12.03140 87.65470 25.64535 10.95402 76.93876
389 68.48350 14.14830 86.78890 35.31840 15.76426 74.85803
390 55.71290 0.000000 71.68450 22.44982 9.353523 49.88042
391 63.19990 33.55270 86.07330 33.75492 19.49881 74.44128
392 24.62630 6.913700 11.48340 2.820301 1.711400 1.470054
393 48.63440 12.40860 12.03830 10.23893 5.611255 1.761067
394 49.26890 31.97430 12.26430 12.58595 10.84749 2.100581
395 53.27610 37.65550 26.81080 16.17330 14.16141 6.887277
396 67.32590 48.62200 29.57010 26.87479 24.08349 8.750652
397 71.88990 61.62360 39.17400 34.61440 35.81972 15.23413
398 18.17400 47.69590 12.97410 7.110659 14.47256 2.706713
399 17.83730 63.55210 22.35080 12.39237 26.72630 6.308460
400 43.81200 65.05840 47.67860 22.27218 32.12980 22.17839
401 12.68430 38.54750 15.19060 4.544535 9.101034 2.886739
402 20.53300 40.56460 26.17580 6.662225 10.85195 6.689045
403 33.40160 46.14350 25.86550 10.53555 15.23197 6.766595
404 61.51030 56.62520 26.98570 25.48061 28.15389 7.960909
405 62.83030 56.65070 51.53870 29.23005 29.57534 24.91004
406 11.37390 32.02920 86.67540 17.15999 11.26743 74.80848
407 13.01500 47.52070 91.97510 22.40165 19.53338 86.69725
408 14.27570 87.91840 93.48860 38.56119 59.03705 91.89626
409 0.000000 80.57520 81.15630 29.25304 47.21067 67.92808
410 11.73640 24.39810 42.96990 5.105874 4.878791 16.53785
411 12.60050 37.27470 44.40910 7.160633 9.529033 17.75118
412 31.66180 40.67510 68.64910 16.41518 14.67780 45.68760
413 45.25970 61.67120 86.77710 32.03790 33.18669 76.20776
414 68.32890 63.67040 87.12530 45.07113 40.61554 77.39177
415 82.36930 66.29390 100.0000 61.68575 49.76006 106.4889
416 88.12080 16.79230 62.95550 43.35126 20.81385 38.31816
417 87.27400 15.36020 87.93290 49.89222 22.72308 77.52080
418 66.73410 55.78370 60.20510 33.52578 30.81797 35.79704
419 76.44940 65.93930 63.03740 44.21707 42.70099 40.11335
420 4.606600 14.60500 12.51200 1.062634 1.564759 1.766263
421 9.419900 14.80470 21.90700 1.857052 1.937274 4.477201
422 30.24900 21.39910 23.46130 5.550081 4.780878 5.068297
423 45.04800 32.14090 41.32470 13.34435 10.91333 15.15447
424 44.90960 39.78790 52.61890 16.51902 14.70567 25.50739
425 42.94810 47.12410 57.29360 18.46115 18.78897 31.34875
426 49.85340 57.03470 61.79980 25.10181 27.56510 37.76088
427 57.25040 56.08270 66.60640 29.90973 29.16259 44.20008
428 73.14630 66.92140 75.55840 46.08436 44.23254 58.30761
429 87.46380 72.49040 74.63580 58.58177 54.56848 56.77993
430 90.05280 76.13770 85.57560 66.57972 60.73002 76.39399
431 32.43220 23.02110 32.96710 7.175881 5.719498 9.645803
432 38.10240 22.87790 46.16260 10.42626 6.924338 19.06807
433 46.59220 25.24700 62.33260 17.19116 10.16051 36.96743
434 26.13440 10.49460 29.20570 4.400060 2.567470 7.389477
435 39.06720 17.27950 35.29820 8.785464 5.392337 10.94732
436 49.10130 15.97380 50.02370 14.57154 7.604879 22.35729
437 63.95650 13.68370 63.06430 25.18518 11.85244 37.91056
438 83.96060 16.78620 73.07400 42.11224 19.92552 51.66734
439 100.0000 29.35350 84.69350 63.35876 32.07548 72.43793
440 11.92260 24.15560 11.44640 2.277968 3.894943 1.657147
441 13.48410 28.04450 20.78780 3.419941 5.358169 4.278960
442 33.08900 29.81210 84.82660 19.97504 11.87492 72.00690
443 45.08390 47.28080 89.10420 28.76656 22.66044 80.35988
444 14.07070 8.401000 45.91330 4.589215 2.204004 18.44100
445 18.89980 18.59310 60.12990 8.632332 4.941464 33.66467
446 19.00570 17.08510 71.37060 11.52319 5.764743 49.31880
447 18.67660 86.07900 71.16980 30.71879 54.49672 52.17079
448 19.59310 86.42800 81.30000 33.99334 55.68205 68.75304
449 37.68740 100.0000 87.61560 48.10966 78.59121 81.00385
450 88.31560 40.41310 2.862600 39.16909 26.19522 1.353381
451 89.98560 81.21850 9.762700 54.60985 61.64643 4.532499
452 91.51190 82.38230 76.74720 67.32452 67.70547 61.14591
453 52.94630 31.51870 30.28410 15.34553 11.74330 8.472947
454 63.48590 41.79790 47.87920 25.38693 20.00485 21.10792
455 64.79790 69.85770 48.71320 34.76718 41.85440 23.29687
456 70.87120 70.33460 60.15620 41.43679 45.08963 36.28085
457 74.48040 84.29110 63.33460 50.94126 62.40376 42.05030
458 30.17400 51.92850 39.59860 12.61186 18.98034 14.69977
459 33.47580 59.38450 52.58440 17.82940 25.89910 26.34190
460 35.20190 70.19290 77.98590 29.09479 38.68853 61.99813
461 39.14210 87.68060 87.41860 41.43508 60.76606 79.79959
462 55.02400 28.48010 19.29780 15.08440 10.95168 3.876880
463 69.12770 28.87230 24.56430 23.60768 14.90008 5.914882
464 77.03920 9.541900 47.68250 30.17437 14.21346 20.45353
465 83.56850 27.25720 50.51530 37.40735 20.59710 23.27649
466 87.97690 39.19610 64.32170 46.10559 28.06738 40.46114
467 78.08470 31.14580 83.27260 42.51870 22.91819 69.33064
468 77.00790 45.90980 84.01610 44.64183 29.58182 71.42376
469 83.72110 69.76260 88.99690 59.30810 52.08159 81.89736
470 2.336400 0.000000 0.000000 0.166465 0.139690 0.131384
471 50.14700 14.02820 37.97610 13.14818 6.900222 12.70717
472 50.56820 35.00780 55.84140 18.67146 13.94274 28.77111
473 76.81550 45.56470 60.58150 37.65474 26.96294 35.52079
474 89.77840 58.39440 68.21290 54.08101 41.88895 46.56212
475 66.32920 15.09890 12.47590 19.75889 10.43508 1.981488
476 70.16720 14.77040 25.70470 23.09927 11.83410 6.187781
477 11.16780 37.23420 29.09400 5.159632 8.813690 7.892300
478 15.86680 53.03210 30.31230 9.378458 18.25532 9.113043
479 23.71120 73.59810 55.08290 21.46940 38.50418 29.74569
480 52.76510 83.72430 61.02920 36.92924 54.93333 38.65119
481 73.09000 100.0000 72.98130 61.43818 85.42468 56.75131
482 21.50390 33.69650 9.138500 4.658564 7.563856 1.555473
483 21.15080 58.63990 8.430900 10.63853 22.60476 2.430392
484 20.89640 83.27820 36.89640 22.30108 48.05738 14.94870
485 18.60630 86.26530 52.58600 26.16421 52.94603 28.30822
486 0.000000 83.58760 61.86490 25.45885 49.37882 39.25547
487 57.55520 84.94820 73.71960 43.85694 59.75009 56.33709
488 70.31270 87.92200 73.77930 52.64671 66.55604 56.56872
489 80.07030 87.78790 80.69900 61.86848 70.66354 68.57845
490 21.88410 13.02740 7.621000 2.507162 2.069821 0.965547
491 33.96320 14.14520 15.74830 5.526393 3.575852 2.546590
492 33.23450 52.09090 16.53490 11.47081 18.89467 3.809870
493 64.99460 73.75790 82.10910 45.24048 48.84832 69.22131
494 68.44290 73.41310 89.94280 50.07195 50.37565 83.52017
495 8.229800 45.10770 46.81990 8.793683 13.48906 19.92183
496 30.88950 51.45960 60.45150 16.64364 20.17658 35.30267
497 44.18050 72.36410 59.76110 27.90675 40.67235 35.68852
498 26.78590 52.79260 83.23310 22.71333 23.06846 69.63606
499 37.04600 64.47730 84.53560 29.43527 33.91585 73.23938
500 54.22700 74.11980 86.66880 40.67579 46.87498 77.06076
501 74.54010 86.32010 91.73370 60.87378 67.87477 88.93478
502 19.84610 87.93790 17.74370 22.89804 53.64137 6.551213
503 17.78820 96.36560 38.12100 29.32200 66.53607 16.96615
504 32.82700 100.0000 59.53480 38.54133 75.03909 38.17319
505 67.86620 100.0000 88.74500 63.02579 85.39634 83.40710
506 0.000000 22.10610 26.93560 2.389137 3.345980 6.523758
507 0.000000 33.16840 31.81640 4.233812 7.013405 9.148129
508 25.51610 35.84490 32.15650 7.211327 9.295955 9.532761
509 49.27010 45.95150 38.11580 17.32945 18.07970 13.51848
510 50.24650 60.63190 46.90200 23.38261 29.79039 21.26239
511 81.01140 80.13630 54.69360 51.87449 58.88031 30.31363
512 85.85590 84.79290 72.41890 62.28712 67.93554 54.68253
513 44.79990 88.32760 78.51040 40.68446 61.29525 64.21437
514 54.28880 88.42970 86.24360 47.60577 64.13259 78.25157
515 70.65090 90.35180 87.78660 58.56769 71.07968 80.96939
516 58.92040 45.08250 41.22850 22.15100 19.89351 15.65950
517 88.76100 49.30530 42.70610 44.72122 32.65575 17.59854
518 100.0000 52.43440 66.68150 62.59049 42.26121 44.63008
519 0.000000 0.000000 0.000000 0.106759 0.111896 0.122340
520 10.07260 5.993600 14.21050 1.050727 0.782691 1.983891
521 55.88420 71.20920 31.37180 27.92597 40.00151 10.98669
522 67.42520 86.81870 35.97310 42.11941 61.05147 14.99175
523 37.66010 66.15170 17.70020 17.34538 31.11302 4.969502
524 39.42870 100.0000 25.35990 35.31882 74.27024 10.54240
525 79.73570 100.0000 26.46350 57.57557 84.73592 11.16512
526 53.70040 77.62370 0.000000 27.78751 45.77809 2.966376
527 78.25260 88.94450 14.43110 48.84047 66.83978 5.965113
528 20.98560 4.715800 64.30990 9.379192 3.710420 39.09440
529 37.78990 13.91980 65.94740 13.89738 6.495729 41.57688
530 45.95350 64.16210 70.28420 28.14605 33.92834 49.46701
531 62.60700 73.82490 70.89970 40.27350 46.86393 51.39300
532 27.95450 27.77320 12.22650 5.049440 6.043376 1.923987
533 40.77670 33.56890 25.60600 10.24303 10.07190 6.190022
534 38.19590 31.18390 11.48100 8.166019 8.513206 1.861593
535 46.63360 43.96810 12.51510 13.52715 15.55574 2.533073
536 57.01860 61.12460 15.81660 23.48860 30.50586 4.164967
537 65.02970 77.20430 16.18310 34.50584 48.47894 5.375438
538 95.39760 79.72930 35.26680 61.24578 63.11215 14.26521
539 71.28510 67.42630 7.932500 33.95513 40.03737 3.112800
540 75.02470 74.72560 31.62100 41.04520 49.33465 11.59748
541 93.03320 83.10700 61.21980 64.82660 67.55138 39.06568
542 45.59340 53.45340 18.55380 15.73896 21.63109 4.428754
543 49.53980 58.25280 33.57680 20.24095 26.74449 11.43989
544 61.33060 59.14070 43.65440 28.00875 30.83607 18.43748
545 63.12880 73.82250 61.92120 38.08548 46.20185 38.94699
546 17.14100 67.89700 35.76200 15.16374 31.35333 13.07829
547 18.29210 74.12180 81.56800 28.27967 41.15625 68.34464
548 45.80550 82.40690 93.33230 43.56728 55.87040 91.76648
549 64.03180 89.88040 100.0000 59.38472 70.38966 108.1293
550 11.81470 26.33430 61.96390 9.068438 6.682913 36.34561
551 12.48360 36.35140 64.95630 11.41299 10.67954 40.86542
552 23.44620 46.94130 68.65820 16.04120 17.30148 45.92413
553 39.73040 53.45440 69.50710 21.98993 23.58737 47.54645
554 15.83840 31.75620 32.97090 5.214072 7.096181 9.821760
555 22.81910 44.07410 40.41430 9.225803 13.27326 14.86835
556 84.17720 13.09750 12.52940 32.66026 16.13431 2.092779
557 87.90090 18.63460 23.98030 36.72775 18.81645 5.561824
558 87.03100 34.35520 31.95560 38.67904 23.60605 9.675102
559 88.91630 41.00070 52.74000 44.91258 28.70526 26.03736
560 88.35380 41.70040 79.62090 51.43510 31.04308 63.79333
561 100.0000 70.70410 83.77070 74.33690 60.15829 73.24531
562 61.05180 12.50450 32.05000 18.10457 9.108881 9.239283
563 68.58140 39.42970 37.20850 26.65031 19.75911 12.92809
564 68.10810 84.40880 49.31050 43.52507 59.33965 25.15520
565 24.80800 70.17420 62.68440 22.20431 35.90757 39.43810
566 42.35520 73.13400 70.75540 30.34031 41.82054 50.70506
567 56.63940 77.38820 79.62480 41.25803 50.43821 65.53339
568 0.000000 62.33410 43.36160 12.86458 25.69439 18.24893
569 33.06080 68.97420 44.79240 19.81788 34.12294 19.74907
570 39.97410 82.52330 44.00970 27.73540 50.06005 20.23636
571 80.46430 64.56950 0.000000 39.52121 40.21369 2.251119
572 82.36140 70.44470 37.75040 45.85683 48.00227 14.92473
573 17.02820 11.11410 35.58150 3.623962 2.159113 11.03237
574 17.08050 21.17000 47.51160 6.080544 4.587242 19.94851
575 15.37450 16.62410 88.88770 16.73977 7.325226 79.27932
576 13.04710 58.59900 89.55830 24.40069 27.07589 81.50766
577 85.18040 80.90120 91.55190 66.23894 64.77072 87.54204
578 43.75550 32.68320 32.49230 11.87090 10.35528 9.715347
579 58.88910 32.26710 50.25740 21.26582 14.44151 22.78114
580 65.92730 20.22430 49.24670 23.89487 12.70352 21.88622
581 75.28390 28.38580 64.26980 34.40720 19.04113 40.01024
582 86.46220 57.95580 81.49740 54.53617 41.32032 67.94584
583 29.22800 7.480000 40.44800 6.203454 2.994088 14.08180
584 33.46090 12.28680 86.95440 19.06644 7.927050 75.22660
585 47.61960 27.73400 88.37420 25.73426 13.94178 77.99442
586 77.30080 0.000000 21.30380 27.18980 12.64435 4.367072
587 85.70990 15.99230 38.01190 36.19020 17.92730 13.04442
588 100.0000 23.11240 55.26000 54.34597 27.34222 28.66766
END_DATA
CAL    

DESCRIPTOR "Argyll Device Calibration State"
ORIGINATOR "Argyll dispread"
CREATED "Sat Aug 20 16:59:28 2022"
DEVICE_CLASS "DISPLAY"
COLOR_REP "RGB"

BEGIN_ARGYLL_DISPCAL_ARGS
-v2 -ql -m -w0.3127,0.329 -gs -f1.0 -k0 -A4.0 -d1 -c1 -yn -P0.467501009285,0.405269761606,2.11975116641
END_ARGYLL_DISPCAL_ARGS


NUMBER_OF_FIELDS 4
BEGIN_DATA_FORMAT
RGB_I RGB_R RGB_G RGB_B
END_DATA_FORMAT

NUMBER_OF_SETS 256
BEGIN_DATA
0.00000000 0.00000000 0.00000000 0.00000000
0.00392157 0.00939135 0.00876610 0.00965677
0.00784314 0.01764480 0.01657240 0.01829690
0.01176470 0.02495540 0.02356840 0.02607280
0.01568630 0.03147600 0.02987400 0.03310800
0.01960780 0.03733750 0.03560280 0.03951000
0.02352940 0.04264040 0.04085720 0.04537110
0.02745100 0.04748270 0.04570930 0.05077150
0.03137250 0.05195920 0.05023330 0.05578870
0.03529410 0.05615330 0.05449280 0.06050020
0.03921570 0.06012690 0.05853130 0.06496730
0.04313730 0.06392450 0.06238900 0.06923950
0.04705880 0.06757880 0.06609530 0.07335250
0.05098040 0.07112450 0.06968190 0.07734130
0.05490200 0.07459470 0.07317920 0.08123310
0.05882350 0.07800830 0.07660010 0.08504280
0.06274510 0.08138550 0.07995720 0.08878320
0.06666670 0.08473440 0.08325910 0.09247250
0.07058820 0.08806880 0.08652340 0.09612540
0.07450980 0.09138960 0.08975180 0.09975180
0.07843140 0.09471250 0.09295910 0.10336900
0.08235290 0.09803200 0.09614420 0.10697300
0.08627450 0.10135000 0.09931110 0.11056800
0.09019610 0.10467900 0.10247500 0.11416300
0.09411760 0.10800900 0.10563100 0.11774800
0.09803920 0.11133200 0.10877900 0.12131900
0.10196100 0.11464600 0.11192000 0.12488300
0.10588200 0.11796300 0.11507700 0.12844600
0.10980400 0.12127400 0.11824300 0.13199700
0.11372500 0.12457900 0.12141900 0.13553700
0.11764700 0.12787200 0.12459600 0.13905400
0.12156900 0.13115900 0.12776500 0.14256900
0.12549000 0.13445200 0.13093800 0.14608300
0.12941200 0.13773600 0.13410300 0.14957800
0.13333300 0.14100600 0.13725100 0.15306300
0.13725500 0.14427400 0.14039500 0.15654100
0.14117600 0.14753300 0.14353200 0.16000500
0.14509800 0.15078400 0.14665600 0.16346500
0.14902000 0.15404300 0.14978500 0.16693700
0.15294100 0.15731900 0.15292400 0.17042200
0.15686300 0.16060200 0.15607300 0.17390800
0.16078400 0.16388600 0.15922700 0.17740000
0.16470600 0.16718200 0.16239200 0.18090800
0.16862700 0.17049600 0.16557700 0.18443300
0.17254900 0.17381300 0.16877700 0.18795300
0.17647100 0.17712200 0.17197500 0.19147400
0.18039200 0.18042900 0.17517500 0.19500300
0.18431400 0.18374400 0.17838400 0.19855400
0.18823500 0.18707600 0.18161100 0.20213300
0.19215700 0.19042400 0.18485600 0.20572600
0.19607800 0.19376700 0.18810300 0.20932100
0.20000000 0.19710100 0.19134400 0.21291400
0.20392200 0.20041900 0.19457100 0.21650600
0.20784300 0.20374100 0.19779500 0.22011300
0.21176500 0.20707600 0.20102800 0.22373700
0.21568600 0.21041400 0.20427200 0.22736400
0.21960800 0.21373400 0.20751400 0.23097800
0.22352900 0.21704700 0.21074700 0.23459600
0.22745100 0.22036600 0.21398800 0.23821500
0.23137300 0.22368200 0.21723800 0.24182600
0.23529400 0.22699700 0.22049500 0.24543900
0.23921600 0.23033400 0.22377700 0.24907400
0.24313700 0.23370700 0.22710400 0.25274300
0.24705900 0.23712700 0.23048600 0.25643300
0.25098000 0.24057500 0.23390300 0.26013500
0.25490200 0.24404900 0.23735000 0.26384600
0.25882400 0.24754600 0.24082100 0.26757200
0.26274500 0.25107000 0.24431900 0.27130200
0.26666700 0.25461000 0.24782400 0.27504300
0.27058800 0.25818400 0.25135200 0.27881300
0.27451000 0.26179600 0.25490600 0.28261800
0.27843100 0.26545400 0.25848600 0.28646300
0.28235300 0.26914500 0.26209100 0.29031600
0.28627500 0.27281300 0.26567900 0.29414000
0.29019600 0.27646200 0.26922800 0.29794600
0.29411800 0.28011700 0.27275400 0.30175700
0.29803900 0.28379200 0.27627200 0.30558500
0.30196100 0.28748800 0.27978900 0.30943100
0.30588200 0.29119300 0.28330000 0.31328400
0.30980400 0.29491500 0.28680200 0.31715800
0.31372500 0.29864900 0.29030200 0.32104500
0.31764700 0.30239200 0.29379300 0.32494000
0.32156900 0.30614800 0.29727400 0.32885100
0.32549000 0.30992000 0.30075100 0.33278300
0.32941200 0.31372800 0.30423000 0.33675400
0.33333300 0.31753500 0.30772700 0.34073300
0.33725500 0.32133200 0.31121800 0.34471000
0.34117600 0.32511300 0.31469700 0.34868300
0.34509800 0.32887500 0.31815700 0.35264900
0.34902000 0.33261400 0.32159900 0.35660800
0.35294100 0.33634600 0.32502700 0.36056800
0.35686300 0.34008100 0.32845500 0.36454300
0.36078400 0.34379400 0.33189500 0.36851300
0.36470600 0.34749300 0.33532800 0.37247700
0.36862700 0.35120000 0.33876000 0.37645600
0.37254900 0.35491800 0.34221600 0.38045200
0.37647100 0.35865100 0.34571100 0.38446800
0.38039200 0.36242300 0.34924900 0.38852000
0.38431400 0.36625600 0.35284500 0.39262400
0.38823500 0.37016300 0.35651000 0.39679100
0.39215700 0.37413700 0.36025600 0.40102000
0.39607800 0.37809700 0.36408600 0.40524600
0.40000000 0.38201700 0.36794900 0.40942300
0.40392200 0.38590600 0.37178700 0.41354800
0.40784300 0.38978700 0.37559400 0.41763500
0.41176500 0.39367700 0.37937600 0.42170200
0.41568600 0.39756200 0.38314100 0.42574000
0.41960800 0.40145700 0.38688800 0.42975100
0.42352900 0.40535000 0.39062000 0.43374800
0.42745100 0.40924100 0.39434400 0.43772500
0.43137300 0.41314300 0.39805000 0.44169600
0.43529400 0.41704500 0.40174800 0.44566900
0.43921600 0.42092000 0.40544800 0.44962400
0.44313700 0.42479200 0.40913700 0.45355800
0.44705900 0.42868600 0.41281800 0.45749600
0.45098000 0.43259600 0.41651600 0.46145900
0.45490200 0.43650800 0.42025300 0.46543700
0.45882400 0.44043000 0.42401400 0.46943100
0.46274500 0.44435500 0.42780100 0.47344500
0.46666700 0.44829200 0.43161500 0.47747600
0.47058800 0.45223600 0.43545900 0.48153100
0.47451000 0.45618000 0.43933300 0.48560200
0.47843100 0.46012400 0.44322500 0.48968400
0.48235300 0.46406900 0.44712600 0.49377600
0.48627500 0.46804800 0.45103800 0.49788200
0.49019600 0.47202300 0.45496800 0.50203300
0.49411800 0.47597600 0.45893200 0.50619600
0.49803900 0.47990800 0.46287600 0.51035700
0.50196100 0.48382200 0.46680100 0.51451700
0.50588200 0.48772700 0.47070600 0.51867700
0.50980400 0.49162000 0.47460200 0.52284700
0.51372500 0.49549600 0.47849900 0.52702900
0.51764700 0.49935900 0.48239600 0.53121400
0.52156900 0.50320200 0.48629300 0.53541200
0.52549000 0.50705000 0.49016900 0.53960700
0.52941200 0.51088900 0.49403400 0.54381600
0.53333300 0.51470100 0.49789400 0.54803700
0.53725500 0.51849600 0.50172700 0.55224400
0.54117600 0.52228200 0.50553900 0.55644600
0.54509800 0.52606400 0.50934100 0.56065400
0.54902000 0.52985900 0.51313700 0.56486800
0.55294100 0.53366400 0.51694100 0.56910700
0.55686300 0.53741800 0.52076400 0.57336400
0.56078400 0.54111300 0.52456300 0.57757400
0.56470600 0.54477200 0.52830400 0.58173300
0.56862700 0.54841800 0.53200300 0.58586000
0.57254900 0.55204000 0.53567700 0.58997200
0.57647100 0.55564200 0.53932600 0.59405600
0.58039200 0.55923100 0.54295300 0.59811400
0.58431400 0.56280900 0.54656100 0.60215600
0.58823500 0.56637200 0.55015200 0.60617700
0.59215700 0.56991600 0.55371800 0.61017400
0.59607800 0.57345100 0.55725900 0.61415000
0.60000000 0.57696200 0.56077700 0.61810400
0.60392200 0.58044200 0.56425700 0.62202300
0.60784300 0.58389600 0.56769100 0.62590400
0.61176500 0.58733000 0.57108500 0.62975500
0.61568600 0.59073100 0.57445500 0.63357200
0.61960800 0.59410000 0.57779200 0.63734600
0.62352900 0.59745400 0.58110300 0.64110500
0.62745100 0.60080400 0.58440700 0.64485500
0.63137300 0.60417500 0.58771500 0.64862200
0.63529400 0.60758600 0.59104700 0.65242300
0.63921600 0.61105400 0.59441800 0.65627200
0.64313700 0.61458500 0.59784500 0.66017800
0.64705900 0.61818200 0.60133700 0.66414200
0.65098000 0.62183100 0.60489800 0.66815100
0.65490200 0.62543700 0.60850600 0.67211800
0.65882400 0.62897700 0.61207500 0.67601600
0.66274500 0.63245200 0.61559500 0.67984300
0.66666700 0.63586700 0.61906400 0.68360600
0.67058800 0.63923400 0.62248800 0.68731500
0.67451000 0.64257100 0.62587500 0.69098800
0.67843100 0.64589000 0.62923900 0.69463700
0.68235300 0.64920600 0.63258800 0.69826900
0.68627500 0.65252000 0.63592700 0.70189400
0.69019600 0.65583800 0.63926400 0.70551900
0.69411800 0.65915200 0.64260400 0.70913300
0.69803900 0.66245000 0.64593400 0.71273000
0.70196100 0.66573700 0.64925400 0.71632400
0.70588200 0.66901600 0.65257700 0.71991400
0.70980400 0.67228300 0.65589000 0.72349900
0.71372500 0.67554900 0.65919300 0.72708800
0.71764700 0.67881600 0.66249300 0.73066900
0.72156900 0.68206200 0.66577800 0.73423000
0.72549000 0.68529100 0.66904200 0.73778200
0.72941200 0.68850500 0.67229600 0.74132100
0.73333300 0.69170200 0.67553500 0.74485000
0.73725500 0.69488700 0.67876500 0.74837000
0.74117600 0.69806900 0.68198600 0.75190200
0.74509800 0.70126900 0.68521700 0.75544400
0.74902000 0.70448100 0.68845300 0.75899200
0.75294100 0.70770300 0.69169200 0.76254600
0.75686300 0.71093300 0.69492700 0.76610800
0.76078400 0.71417500 0.69816200 0.76968900
0.76470600 0.71743600 0.70140200 0.77327900
0.76862700 0.72070200 0.70463500 0.77687200
0.77254900 0.72397500 0.70785900 0.78047600
0.77647100 0.72726100 0.71108400 0.78409300
0.78039200 0.73056100 0.71431200 0.78773100
0.78431400 0.73388500 0.71755500 0.79141100
0.78823500 0.73725500 0.72083000 0.79514500
0.79215700 0.74068500 0.72414900 0.79894100
0.79607800 0.74418000 0.72752000 0.80275400
0.80000000 0.74768900 0.73090600 0.80653400
0.80392200 0.75117300 0.73425500 0.81027900
0.80784300 0.75463300 0.73756900 0.81399700
0.81176500 0.75807600 0.74085400 0.81770200
0.81568600 0.76152000 0.74412400 0.82142100
0.81960800 0.76498400 0.74739700 0.82515900
0.82352900 0.76847100 0.75068300 0.82890500
0.82745100 0.77196700 0.75397600 0.83265800
0.83137300 0.77547400 0.75726800 0.83642900
0.83529400 0.77900100 0.76056700 0.84021800
0.83921600 0.78254400 0.76388100 0.84402400
0.84313700 0.78609800 0.76720900 0.84784300
0.84705900 0.78966400 0.77054800 0.85169200
0.85098000 0.79326500 0.77391000 0.85558100
0.85490200 0.79690900 0.77731100 0.85948500
0.85882400 0.80056500 0.78074700 0.86335700
0.86274500 0.80418800 0.78417200 0.86720000
0.86666700 0.80779100 0.78757500 0.87103100
0.87058800 0.81138800 0.79096400 0.87484900
0.87451000 0.81497700 0.79435000 0.87866200
0.87843100 0.81856700 0.79773600 0.88247200
0.88235300 0.82216200 0.80113900 0.88628900
0.88627500 0.82577700 0.80456100 0.89011200
0.89019600 0.82940300 0.80801100 0.89391600
0.89411800 0.83300900 0.81148000 0.89770400
0.89803900 0.83660500 0.81495400 0.90148400
0.90196100 0.84019800 0.81843800 0.90527100
0.90588200 0.84379800 0.82193800 0.90906600
0.90980400 0.84740200 0.82546200 0.91284800
0.91372500 0.85098600 0.82900800 0.91661000
0.91764700 0.85455500 0.83255500 0.92036700
0.92156900 0.85813200 0.83610900 0.92412400
0.92549000 0.86171000 0.83968300 0.92786600
0.92941200 0.86527300 0.84326600 0.93160600
0.93333300 0.86884700 0.84684800 0.93535100
0.93725500 0.87242400 0.85045500 0.93909300
0.94117600 0.87600800 0.85406900 0.94284100
0.94509800 0.87959300 0.85769600 0.94658700
0.94902000 0.88318000 0.86132900 0.95033000
0.95294100 0.88676700 0.86496700 0.95407400
0.95686300 0.89035800 0.86861500 0.95781900
0.96078400 0.89395100 0.87227200 0.96156400
0.96470600 0.89754600 0.87593600 0.96530800
0.96862700 0.90114200 0.87960900 0.96905100
0.97254900 0.90473800 0.88329400 0.97279100
0.97647100 0.90833500 0.88699000 0.97652900
0.98039200 0.91193300 0.89069900 0.98026400
0.98431400 0.91553200 0.89442000 0.98399800
0.98823500 0.91913100 0.89815300 0.98772800
0.99215700 0.92273000 0.90189900 0.99145700
0.99607800 0.92633100 0.90565700 0.99518300
1.00000000 0.92993200 0.90942700 0.99890700
END_DATA
