CTI3   

DESCRIPTOR "Argyll Calibration Target chart information 3"
ORIGINATOR "Argyll dispread"
CREATED "Sat Aug 20 16:59:28 2022"
DEVICE_CLASS "DISPLAY"
SINGLE_DIM_STEPS "21"
COMP_GREY_STEPS "61"
DARK_REGION_EMPHASIS "1.6"
COLOR_REP "RGB_XYZ"
TARGET_INSTRUMENT "X-Rite i1 DisplayPro, ColorMunki Display"
DISPLAY_TYPE_REFRESH "NO"
DISPLAY_TYPE_BASE_ID "1"
INSTRUMENT_TYPE_SPECTRAL "NO"
LUMINANCE_XYZ_CDM2 "72.038059 75.504042 82.551853"
NORMALIZED_TO_Y_100 "YES"
VIDEO_LUT_CALIBRATION_POSSIBLE "YES"

BEGIN_ARGYLL_COLPROF_ARGS
-v -qh -aX -bn -C "No copyright. Created with DisplayCAL 3.8.9.3 and ArgyllCMS 2.1.2" -M "KOIOS K2721UG"
END_ARGYLL_COLPROF_ARGS

OBSERVER "1931_2"
USE_BLACK_POINT_COMPENSATION "NO"
BLACK_POINT_CORRECTION "0.0"
HIRES_B2A "YES"
HIRES_B2A_SIZE "-1"
SMOOTH_B2A "YES"
PATCH_SEQUENCE "OPTIMIZE_DISPLAY_RESPONSE_DELAY"

NUMBER_OF_FIELDS 7
BEGIN_DATA_FORMAT
SAMPLE_ID RGB_R RGB_G RGB_B XYZ_X XYZ_Y XYZ_Z
END_DATA_FORMAT

NUMBER_OF_SETS 588
BEGIN_DATA
1 100.0000 100.0000 100.0000 95.40954 100.0000 109.3343
2 1.960800 1.960800 1.960800 0.206960 0.215410 0.314524
3 3.921600 3.921600 3.921600 0.368872 0.374588 0.491760
4 5.882400 5.882400 5.882400 0.547417 0.574875 0.698984
5 9.803900 9.803900 9.803900 1.009349 1.049554 1.253162
6 13.72600 13.72600 13.72600 1.647734 1.706403 2.046502
7 17.64700 17.64700 17.64700 2.638917 2.775189 3.134098
8 21.56900 21.56900 21.56900 3.728409 3.935606 4.424515
9 25.49000 25.49000 25.49000 5.060014 5.305747 5.907834
10 29.41200 29.41200 29.41200 6.729247 7.069102 7.858508
11 33.33300 33.33300 33.33300 8.725494 9.131188 10.06981
12 37.25500 37.25500 37.25500 10.85069 11.38178 12.54634
13 41.17600 41.17600 41.17600 13.43337 14.15687 15.33565
14 45.09800 45.09800 45.09800 16.27535 17.05412 18.70762
15 49.02000 49.02000 49.02000 19.42058 20.47209 22.15211
16 52.94100 52.94100 52.94100 23.07642 24.35051 26.39446
17 56.86300 56.86300 56.86300 27.35272 28.72699 30.85781
18 60.78400 60.78400 60.78400 31.74059 33.31839 36.37425
19 64.70600 64.70600 64.70600 36.31318 37.90018 41.83940
20 68.62700 68.62700 68.62700 41.29922 43.22155 47.31316
21 72.54900 72.54900 72.54900 46.54556 48.94281 53.22480
22 76.47100 76.47100 76.47100 51.87914 54.66688 59.54752
23 80.39200 80.39200 80.39200 58.28245 61.12059 67.12776
24 84.31400 84.31400 84.31400 64.80829 68.22219 74.46469
25 88.23500 88.23500 88.23500 71.35718 75.26781 81.54800
26 92.15700 92.15700 92.15700 78.63162 82.81064 90.14252
27 96.07800 96.07800 96.07800 86.53251 91.09993 99.74929
28 82.07790 31.39870 100.0000 52.02458 26.59683 104.4855
29 100.0000 48.03860 100.0000 72.87283 42.94995 105.1966
30 58.23890 74.09770 51.96100 33.49460 44.60027 26.89761
31 100.0000 88.32320 54.89040 73.92924 77.54250 31.52305
32 22.07500 40.23340 0.000000 5.665401 10.41057 0.844512
33 40.43310 54.27180 54.21580 18.45640 22.80976 27.47938
34 49.90430 64.88310 58.94730 26.72062 33.53166 33.94935
35 100.0000 64.14480 100.0000 77.94544 55.94958 106.0925
36 4.807700 0.000000 0.000000 0.275849 0.188601 0.207263
37 7.425700 0.000000 0.000000 0.412840 0.252351 0.208722
38 10.20410 0.000000 0.000000 0.577828 0.329040 0.210078
39 13.15790 0.000000 0.000000 0.860043 0.461024 0.213026
40 16.30430 0.000000 0.000000 1.171054 0.606163 0.215281
41 19.66290 0.000000 0.000000 1.595743 0.803790 0.219395
42 23.25580 0.000000 0.000000 2.145880 1.060197 0.224404
43 27.10840 0.000000 0.000000 2.866586 1.396324 0.231683
44 31.25000 0.000000 0.000000 3.807020 1.835199 0.240834
45 35.71430 0.000000 0.000000 4.983823 2.383975 0.252537
46 43.08150 0.000000 0.000000 7.288708 3.458108 0.275272
47 45.77470 0.000000 0.000000 8.315570 3.937608 0.285612
48 51.47060 0.000000 0.000000 10.62039 5.012113 0.308338
49 57.69230 0.000000 0.000000 13.88705 6.535160 0.340257
50 64.51610 0.000000 0.000000 17.84505 8.378868 0.379374
51 72.03390 0.000000 0.000000 22.53088 10.56260 0.426487
52 80.35710 0.000000 0.000000 28.67103 13.43241 0.489614
53 89.62260 0.000000 0.000000 36.68502 17.16574 0.567324
54 100.0000 34.68400 0.000000 50.43839 29.25616 1.140626
55 100.0000 48.32630 16.00260 53.69205 36.52192 3.971199
56 0.000000 4.807700 0.000000 0.202884 0.345536 0.221541
57 0.000000 7.425700 0.000000 0.282396 0.547602 0.234693
58 0.000000 10.20410 0.000000 0.388008 0.813468 0.251705
59 0.000000 13.15790 0.000000 0.547045 1.220695 0.278483
60 0.000000 16.30430 0.000000 0.739237 1.708299 0.310702
61 0.000000 19.66290 0.000000 0.999517 2.370954 0.353971
62 0.000000 23.25580 0.000000 1.301769 3.135250 0.404493
63 0.000000 27.10840 0.000000 1.738492 4.246978 0.477927
64 0.000000 31.25000 0.000000 2.315854 5.713501 0.575440
65 0.000000 35.71430 0.000000 2.973430 7.381135 0.685606
66 0.000000 40.54050 0.000000 3.799752 9.476837 0.823709
67 0.000000 45.77470 0.000000 4.917345 12.32134 1.009178
68 0.000000 51.47060 0.000000 6.307624 15.85501 1.244219
69 0.000000 57.69230 0.000000 8.177344 20.73814 1.563913
70 0.000000 64.51610 0.000000 10.44028 26.39152 1.935784
71 0.000000 72.03390 0.000000 13.36069 33.78239 2.423591
72 0.000000 74.62380 24.13860 15.38639 36.75116 7.545836
73 85.50370 100.0000 47.33070 64.83365 87.70728 25.11491
74 100.0000 100.0000 50.88150 80.07168 94.81568 28.44500
75 0.000000 0.000000 2.336400 0.135208 0.120250 0.330261
76 0.000000 0.000000 4.807700 0.175509 0.133903 0.542179
77 0.000000 0.000000 7.425700 0.236109 0.154876 0.860809
78 0.000000 0.000000 10.20410 0.299009 0.176552 1.192182
79 0.000000 0.000000 13.15790 0.423776 0.218936 1.846112
80 0.000000 0.000000 16.30430 0.566782 0.267956 2.599501
81 0.000000 0.000000 19.66290 0.729597 0.323621 3.467154
82 0.000000 0.000000 23.25580 0.944601 0.397329 4.599763
83 0.000000 0.000000 27.10840 1.257931 0.504411 6.238146
84 0.000000 0.000000 31.25000 1.661638 0.643018 8.368069
85 0.000000 0.000000 35.71430 2.119829 0.798807 10.77673
86 0.000000 0.000000 40.54050 2.687152 0.992241 13.76442
87 0.000000 0.000000 45.77470 3.508988 1.272462 18.10941
88 0.000000 0.000000 51.47060 4.396978 1.575152 22.76694
89 0.000000 0.000000 57.69230 5.811267 2.057740 30.21522
90 0.000000 0.000000 64.51610 7.510043 2.637540 39.19200
91 0.000000 0.000000 72.03390 9.442673 3.294477 49.36292
92 0.000000 0.000000 80.35710 12.06953 4.181356 63.18897
93 0.000000 0.000000 89.62260 15.26012 5.272656 80.02261
94 32.18100 0.000000 100.0000 23.74984 8.649888 103.6096
95 30.61630 50.62980 100.0000 29.70347 24.19429 105.0382
96 39.24070 63.33040 100.0000 35.98850 35.26384 105.6315
97 47.29830 80.11630 100.0000 45.93098 54.24618 106.8052
98 63.22460 100.0000 100.0000 64.90393 85.73683 108.8061
99 0.000000 61.52170 65.21550 17.23682 26.79217 41.67721
100 0.000000 67.43330 83.52260 24.65895 33.94923 70.79600
101 5.663400 5.663400 5.663400 0.522245 0.534848 0.655111
102 6.535900 6.535900 6.535900 0.631657 0.671873 0.791336
103 7.425700 7.425700 7.425700 0.715458 0.738772 0.899545
104 8.333300 8.333300 8.333300 0.823404 0.856159 1.011496
105 9.259300 9.259300 9.259300 0.969382 1.028403 1.194532
106 10.20410 10.20410 10.20410 1.051710 1.106288 1.254483
107 11.16840 11.16840 11.16840 1.179593 1.240520 1.392253
108 12.15280 12.15280 12.15280 1.352950 1.403567 1.653259
109 13.15790 13.15790 13.15790 1.629857 1.700954 1.952597
110 14.18440 14.18440 14.18440 1.727838 1.805582 2.054472
111 15.23300 15.23300 15.23300 2.043859 2.142706 2.398262
112 16.30430 16.30430 16.30430 2.286428 2.392557 2.751496
113 17.39930 17.39930 17.39930 2.514316 2.642302 3.008690
114 18.51850 18.51850 18.51850 2.841243 2.950194 3.287438
115 19.66290 19.66290 19.66290 3.158012 3.335515 3.692010
116 20.83330 20.83330 20.83330 3.535187 3.673912 4.130080
117 22.03070 22.03070 22.03070 3.886075 4.101328 4.591046
118 23.25580 23.25580 23.25580 4.245891 4.448038 4.900297
119 24.50980 24.50980 24.50980 4.637374 4.916924 5.408478
120 25.79360 25.79360 25.79360 5.239383 5.495065 6.097038
121 27.10840 27.10840 27.10840 5.755999 6.043298 6.659154
122 28.45530 28.45530 28.45530 6.416987 6.807031 7.485865
123 29.83540 29.83540 29.83540 6.928347 7.273497 8.072929
124 31.25000 31.25000 31.25000 7.738031 8.153601 8.954750
125 32.70040 32.70040 32.70040 8.284296 8.657381 9.604813
126 34.18800 34.18800 34.18800 9.172545 9.602162 10.56132
127 35.71430 35.71430 35.71430 10.09139 10.59292 11.55633
128 37.28070 37.28070 37.28070 10.85416 11.38452 12.56474
129 38.88890 38.88890 38.88890 11.82601 12.43988 13.61023
130 40.54050 40.54050 40.54050 12.87107 13.55033 14.73913
131 42.23740 42.23740 42.23740 14.22713 14.84959 16.52481
132 43.98150 43.98150 43.98150 15.37728 16.08726 17.75759
133 45.77470 45.77470 45.77470 16.83334 17.67944 19.38823
134 47.61910 47.61910 47.61910 18.23750 19.08602 20.75497
135 49.51690 49.51690 49.51690 19.77790 20.85210 22.57105
136 51.47060 51.47060 51.47060 21.55909 22.70367 24.37760
137 53.48260 53.48260 53.48260 23.54036 24.77997 26.88050
138 55.55560 55.55560 55.55560 25.95549 27.33416 29.46925
139 57.69230 57.69230 57.69230 28.27415 29.74656 32.35812
140 59.89580 59.89580 59.89580 30.72237 32.20419 35.29942
141 62.16930 62.16930 62.16930 33.18563 34.81651 38.47632
142 64.51610 64.51610 64.51610 36.23828 37.80732 41.80482
143 66.93990 66.93990 66.93990 39.08239 41.15638 44.84148
144 69.44440 69.44440 69.44440 42.16051 44.30221 48.45471
145 72.03390 72.03390 72.03390 45.66481 48.08863 52.33800
146 74.71260 74.71260 74.71260 49.76569 52.36691 57.12953
147 77.48540 77.48540 77.48540 53.95049 56.84316 61.92310
148 80.35710 80.35710 80.35710 58.19217 60.97179 67.21336
149 83.33330 83.33330 83.33330 62.63233 65.69259 72.25884
150 86.41970 86.41970 86.41970 67.62116 71.21214 78.31616
151 89.62260 89.62260 89.62260 74.07406 77.83178 84.87297
152 92.94870 92.94870 92.94870 79.61922 83.59006 91.68090
153 96.40520 96.40520 96.40520 87.27594 91.81064 100.7632
154 0.000000 15.16510 27.62230 1.863459 1.954627 6.569771
155 0.000000 42.03280 100.0000 23.88247 17.22253 104.5067
156 0.000000 56.67440 100.0000 27.76683 27.11388 105.1169
157 0.000000 69.33390 100.0000 32.07658 38.07974 105.9904
158 100.0000 86.49770 87.02870 82.23307 78.51109 79.22214
159 100.0000 100.0000 88.65780 90.55725 98.38312 83.70769
160 12.42590 9.712100 0.000000 1.031942 1.079428 0.255170
161 26.21530 11.33890 0.000000 3.057565 2.186316 0.287607
162 43.91940 19.07650 18.06270 9.109313 6.048686 3.244277
163 52.65820 46.95840 27.42860 17.80247 19.00019 7.584728
164 0.000000 100.0000 0.000000 27.88642 70.79083 4.864323
165 36.78360 100.0000 0.000000 33.19932 73.21553 4.918920
166 60.37980 100.0000 0.000000 43.43409 78.08337 5.024393
167 80.55630 100.0000 0.000000 56.83713 84.31598 5.155914
168 100.0000 100.0000 27.41130 76.88710 93.57667 11.92526
169 34.07890 0.000000 74.74320 14.86312 5.717054 54.11074
170 41.15220 31.79460 74.12360 19.14540 12.60583 53.40589
171 52.08740 54.39650 82.69450 31.40803 28.14960 69.08511
172 0.000000 12.50920 36.26190 2.563084 1.795804 11.14651
173 0.000000 16.82150 56.11460 6.086691 3.628991 28.28175
174 0.000000 21.55580 78.36530 12.49056 6.690320 59.95255
175 28.40300 35.48550 78.68740 17.52264 12.75376 61.23599
176 52.86520 41.81320 100.0000 35.60597 22.79835 104.6728
177 60.27000 55.77400 100.0000 43.14533 33.66099 105.4951
178 100.0000 77.62720 100.0000 83.44125 69.58968 107.2445
179 100.0000 88.79430 100.0000 88.67403 82.73315 108.1404
180 26.57560 0.000000 18.01660 3.342666 1.553186 3.014958
181 57.12330 0.000000 18.83570 14.38771 6.696428 3.400574
182 100.0000 0.000000 16.20060 48.24470 22.49400 3.021305
183 100.0000 0.000000 30.98110 49.24553 22.82599 8.830566
184 100.0000 26.89860 34.56890 51.31193 27.26033 11.19361
185 100.0000 35.33370 48.85180 54.58499 31.04650 22.23520
186 61.46280 31.38910 0.000000 18.36082 13.29692 0.741670
187 69.53420 32.44750 44.65760 26.57926 17.03600 18.18044
188 0.000000 0.000000 0.000000 0.111809 0.111623 0.205472
189 0.000000 2.336400 0.000000 0.146343 0.202648 0.211998
190 74.91210 24.07570 0.000000 25.82497 14.82583 0.666753
191 100.0000 100.0000 100.0000 95.36758 99.90102 109.3333
192 0.000000 80.35710 0.000000 16.85208 42.71269 3.013113
193 0.000000 89.62260 0.000000 21.68066 54.71262 3.806487
194 0.000000 100.0000 27.78670 29.13928 71.19634 11.45849
195 0.000000 100.0000 85.31040 41.83863 75.70402 77.77914
196 0.000000 0.000000 100.0000 19.80298 6.782235 103.8903
197 0.000000 23.99290 100.0000 21.12709 10.12895 104.1780
198 25.30180 36.37080 100.0000 25.38293 15.71438 104.4584
199 29.15380 69.43270 100.0000 35.45501 39.84181 106.2200
200 83.18950 89.18610 100.0000 72.35350 75.47780 108.0164
201 100.0000 61.85160 25.82870 58.40716 47.19142 8.058994
202 100.0000 75.81830 40.28050 65.27383 61.00456 17.31248
203 21.83570 18.61190 0.000000 2.736779 2.961992 0.355348
204 36.40610 21.89520 0.000000 6.283537 5.312319 0.443076
205 62.04250 30.12000 66.51550 26.81186 15.90178 43.15088
206 77.10870 49.61750 100.0000 52.39962 34.43229 105.3666
207 18.58260 0.000000 28.67890 2.790603 1.199880 7.073344
208 75.39200 0.000000 37.59860 27.21676 12.47518 12.42896
209 78.49010 30.79110 37.85010 31.83524 19.23332 13.24578
210 85.33520 51.55340 54.74090 44.77551 33.59960 28.79127
211 100.0000 72.93870 72.17370 71.31615 61.07240 53.17067
212 100.0000 86.98010 73.12630 78.14244 77.69984 55.61099
213 40.54050 0.000000 0.000000 6.365835 3.028601 0.266926
214 49.25570 17.76710 0.000000 10.61521 6.564285 0.427681
215 67.34740 48.55810 0.000000 25.26235 23.41771 1.333905
216 80.89020 58.04040 24.85780 38.73476 35.23491 7.098018
217 100.0000 57.89290 55.92130 61.69812 45.60272 30.78347
218 36.15760 0.000000 33.95000 7.039736 3.112871 10.03706
219 43.13930 0.000000 52.15040 11.95272 5.066665 24.20284
220 100.0000 0.000000 59.42970 54.04335 24.47414 33.59132
221 100.0000 29.93450 69.76530 58.70882 30.59713 47.78688
222 100.0000 52.14890 81.78550 66.97812 43.51368 68.29586
223 0.000000 0.000000 0.000000 0.111992 0.111880 0.205830
224 15.00650 22.70260 0.000000 2.175134 3.470276 0.408324
225 54.43930 50.09270 0.000000 18.33094 20.98620 1.325163
226 54.14220 60.45240 77.32400 32.42392 32.79079 59.83455
227 32.33060 22.52390 100.0000 25.01341 11.60058 104.1433
228 60.00120 26.11340 100.0000 36.74498 17.99841 104.5747
229 29.08730 38.85320 42.40960 9.717408 11.37896 16.33915
230 38.09570 48.40890 41.17990 13.98285 17.64104 15.65617
231 50.20070 75.11040 44.34190 28.44279 43.61174 19.96804
232 86.85210 100.0000 69.03650 70.68443 89.83899 51.14667
233 100.0000 100.0000 73.41340 85.67471 96.70867 57.57712
234 0.000000 44.94870 30.08120 6.247835 12.48414 8.659667
235 33.16950 57.46150 33.00360 14.45313 23.67772 10.88536
236 53.74600 100.0000 76.47900 50.80055 80.20554 61.60872
237 86.73290 100.0000 87.40500 76.35040 91.84718 81.29811
238 86.93450 100.0000 100.0000 82.21570 93.91282 109.4339
239 39.17180 100.0000 44.16900 37.39027 75.02620 22.24229
240 56.10300 100.0000 58.82740 47.56032 79.34407 37.40747
241 0.000000 85.42430 100.0000 39.36116 56.28401 107.4434
242 31.53320 88.77250 100.0000 44.77246 62.13997 107.7107
243 100.0000 100.0000 100.0000 95.52775 100.0449 109.3333
244 26.28120 40.45100 54.19640 11.52719 12.65422 27.02428
245 63.15830 52.77620 70.42250 33.12799 28.49446 49.51091
246 17.40800 6.984100 10.01250 1.673893 1.181495 1.251954
247 25.17170 11.65680 20.38380 3.531880 2.329625 3.899305
248 0.000000 9.732200 13.95770 0.705523 0.887654 2.005094
249 0.000000 19.86580 15.26730 1.409563 2.534125 2.443275
250 29.96600 32.70620 24.96010 6.893198 8.095795 5.946818
251 71.84070 41.08290 28.26840 27.71226 21.04380 7.872935
252 100.0000 85.46560 26.47300 68.51448 72.49053 10.12958
253 77.66710 80.51790 0.000000 43.71227 55.52912 3.302470
254 100.0000 80.08670 0.000000 64.77837 65.48929 3.534116
255 100.0000 100.0000 0.000000 75.72539 93.36936 5.367293
256 0.000000 25.89900 51.96400 6.150108 5.469715 24.34831
257 0.000000 34.80960 76.29590 13.53415 10.80139 56.73353
258 0.000000 46.23220 78.50930 16.44626 16.66297 60.81473
259 59.08170 66.43930 100.0000 46.14311 42.46774 106.3524
260 81.35510 78.34700 100.0000 65.91562 61.94153 107.3840
261 3.144700 3.144700 3.144700 0.298666 0.304307 0.393699
262 3.968300 3.968300 3.968300 0.369099 0.374614 0.491955
263 4.807700 4.807700 4.807700 0.438334 0.449610 0.565376
264 40.84140 22.80530 28.79040 9.077987 6.558272 7.403242
265 41.36920 65.79390 30.08070 19.18528 31.61408 9.897026
266 64.67950 69.33740 36.98860 32.74775 40.68421 14.10583
267 89.47370 85.46990 46.34020 59.65548 67.87358 22.74588
268 31.47420 59.65630 0.000000 12.63811 24.16376 1.711158
269 32.13200 77.83400 0.000000 19.89215 41.96100 2.887516
270 0.000000 52.62820 21.08150 7.425132 17.07126 5.188335
271 0.000000 54.79990 77.51200 18.46324 22.44423 59.62251
272 0.000000 100.0000 100.0000 47.69866 77.56428 108.6802
273 100.0000 0.000000 0.000000 47.65353 22.28849 0.685625
274 100.0000 0.000000 44.73590 50.98611 23.42660 18.04798
275 100.0000 0.000000 78.51620 59.07141 26.17942 60.57443
276 100.0000 27.81620 100.0000 69.63589 33.82719 105.3445
277 0.000000 75.83370 41.46260 17.59711 38.52890 17.37737
278 0.000000 100.0000 47.27770 31.78316 72.15049 24.54303
279 0.000000 100.0000 65.35600 35.90939 73.72836 45.82917
280 25.82950 100.0000 74.84410 41.13122 75.93615 59.67124
281 35.58380 100.0000 100.0000 52.98740 80.19899 109.1470
282 53.24000 0.000000 32.42390 13.41187 6.105063 9.235634
283 58.21760 0.000000 49.13960 18.25118 8.081017 21.08339
284 77.74980 0.000000 55.70140 32.06367 14.34686 28.17642
285 76.52690 56.14780 55.03090 38.75599 33.63495 28.96187
286 88.43990 66.39590 58.50430 53.09063 47.32964 34.19806
287 0.764500 0.764500 0.764500 0.130519 0.132020 0.223511
288 1.543200 1.543200 1.543200 0.177783 0.178267 0.273995
289 2.336400 2.336400 2.336400 0.229987 0.239427 0.338977
290 25.22480 0.000000 50.90540 6.756905 2.678925 22.64386
291 55.98670 0.000000 100.0000 33.03049 12.96039 104.0435
292 100.0000 0.000000 100.0000 67.36452 28.97195 104.2908
293 76.61400 0.000000 75.10660 36.11885 15.59060 55.21007
294 77.81530 0.000000 100.0000 46.49312 19.24152 103.9431
295 29.75030 25.33360 43.50030 8.095594 6.477657 16.90669
296 33.77270 34.60910 43.22420 10.31449 10.13427 16.81821
297 44.09300 45.49310 65.69880 20.49346 18.70179 42.40791
298 0.000000 29.82950 42.01300 4.969735 6.149613 15.66231
299 0.000000 45.79720 54.88570 10.07389 14.21672 27.82774
300 0.000000 72.36920 63.41470 20.86510 36.99603 40.35501
301 38.12700 87.46680 62.41850 33.33721 57.35357 40.38438
302 100.0000 58.94290 0.000000 56.36202 44.10886 2.122397
303 100.0000 61.11770 42.35500 60.34933 47.52159 18.09775
304 31.91620 32.85230 0.000000 6.383446 8.073259 0.652245
305 40.25920 50.79940 0.000000 12.58757 18.74218 1.305278
306 57.58790 64.50700 0.000000 24.49018 33.19972 2.096382
307 60.33330 100.0000 31.45050 45.23014 78.79931 13.58798
308 69.27310 100.0000 49.72770 53.22916 82.33374 27.09083
309 42.82160 87.15720 18.44130 28.20639 55.31047 6.679968
310 51.39220 86.80840 37.34830 33.26969 56.98834 15.60323
311 46.53340 67.22230 9.067300 20.44849 33.25677 3.114872
312 89.06740 68.90930 47.96850 52.36470 49.39177 22.77311
313 100.0000 74.40840 58.89320 68.44506 61.36450 35.53935
314 52.49630 43.52750 48.47960 19.77933 17.88622 21.67938
315 60.25890 45.70010 57.32450 26.29970 21.86519 31.35940
316 19.59990 13.72780 24.50640 3.012197 2.272134 5.245626
317 23.07380 23.38780 33.65960 5.290818 4.916705 10.06097
318 53.52210 59.22100 52.06520 25.16148 29.28213 26.03022
319 80.05290 70.42260 56.25420 47.04399 48.17063 31.19002
320 66.23240 57.75540 15.19470 27.64391 30.10310 3.910201
321 84.17210 66.21590 19.38730 43.85393 43.59978 5.669176
322 86.58510 82.00270 26.70240 52.92615 61.71201 9.667492
323 80.51130 88.33500 32.23560 51.83483 67.62438 12.98421
324 82.76010 91.06410 53.52990 58.21905 73.16912 30.41029
325 88.76990 96.60190 77.61150 72.93076 86.01094 63.88484
326 39.82320 18.42280 7.813000 7.231213 5.054484 1.124135
327 91.03710 26.68360 4.922900 39.49758 21.83683 1.242885
328 100.0000 28.32310 16.62950 50.04854 27.20186 3.487815
329 34.21610 22.93580 14.53520 6.151202 5.305177 2.331158
330 35.00690 41.13180 14.39090 9.158093 12.43303 2.806811
331 44.51300 49.35340 35.50170 15.89205 19.26111 12.12605
332 24.35600 33.98020 20.98170 5.738912 8.128503 4.572909
333 39.77230 39.84560 23.71850 10.78217 12.62026 5.555194
334 85.31420 57.09530 35.56320 43.48426 37.02576 12.86860
335 80.90180 45.32290 0.000000 34.17180 25.98833 1.301042
336 91.40690 45.51480 25.99570 44.07475 30.57232 7.120520
337 100.0000 45.22570 35.73020 54.65776 35.24691 12.48170
338 64.42550 26.26710 9.069000 19.48444 12.37317 1.544819
339 82.09270 31.38920 15.50440 32.70505 19.98917 3.128185
340 85.92590 58.63600 4.853500 41.68514 37.28598 2.323834
341 100.0000 70.70260 16.53190 61.10737 55.39722 5.377815
342 0.000000 0.000000 0.000000 0.112066 0.111863 0.205904
343 0.000000 31.39590 15.79680 2.753267 5.915613 2.774322
344 62.72180 46.88890 15.54260 22.41443 21.26913 3.486459
345 66.81400 54.36260 42.87410 29.52290 28.47870 17.58472
346 77.89950 53.90250 44.03260 37.46712 31.75273 18.51552
347 56.88900 90.06420 13.38850 35.96041 62.14509 5.708964
348 64.85520 91.51050 58.52240 46.91599 68.14483 35.97478
349 100.0000 100.0000 100.0000 95.36758 99.90102 109.3333
350 48.64570 34.76050 0.000000 12.30117 11.54349 0.763157
351 63.51380 38.15070 14.55830 20.98339 16.65371 2.829550
352 79.42340 45.62570 16.22630 33.51505 25.66282 3.644691
353 12.85480 17.50760 7.417300 1.696551 2.382176 1.004801
354 23.41560 22.63090 15.13720 3.822964 4.205966 2.519970
355 28.23970 76.19730 20.69970 18.80342 39.70153 6.516709
356 51.58170 79.58540 20.74860 28.36617 47.78605 6.914434
357 13.79830 47.69140 63.27490 13.36416 16.58849 38.48923
358 32.82020 48.15780 85.53900 23.74424 20.81981 73.86151
359 0.000000 38.26420 60.14560 9.731663 10.75443 33.87042
360 19.51710 57.57860 68.70060 18.43308 24.74403 46.28883
361 20.64160 65.29400 83.93350 25.66882 32.44974 71.51047
362 21.18910 77.98080 100.0000 37.46921 47.98001 106.5777
363 62.41570 77.67720 100.0000 52.37889 54.94909 106.7184
364 31.63310 18.49700 53.30120 9.592906 5.582709 25.62574
365 54.74340 19.84790 71.14870 22.72551 11.41872 48.77251
366 60.07120 44.09870 85.08470 33.64483 23.37107 73.24956
367 6.678500 9.354100 22.59840 1.445165 1.174624 4.563566
368 13.35120 23.20110 22.58280 2.913244 3.826700 4.748510
369 14.97300 24.40580 30.54380 3.878635 4.488406 8.338890
370 26.11240 52.81180 53.88570 14.39309 20.21904 27.07347
371 25.56020 64.11270 65.91870 20.78567 30.18393 43.24075
372 0.000000 50.00430 45.97640 9.518269 16.42067 19.36679
373 16.88830 57.02450 45.95200 12.67835 22.09621 19.85412
374 77.29510 58.22450 68.90260 43.50999 36.49667 47.33293
375 14.63900 5.212500 22.79910 1.893729 1.061222 4.549544
376 14.48180 16.59310 33.12400 3.358866 2.738382 9.479970
377 16.26690 30.11530 41.78250 6.097849 6.839749 15.79067
378 26.16560 33.24030 53.78520 10.15430 9.416043 26.31842
379 37.74770 33.60910 62.43850 15.13317 11.64206 37.10501
380 52.86390 41.91150 70.69150 24.83769 19.07363 48.77228
381 13.52970 0.000000 12.69080 1.144168 0.559167 1.672289
382 39.13530 0.000000 16.10690 6.451106 3.013619 2.568547
383 40.99190 11.71200 25.68410 8.105201 4.420705 5.793413
384 54.33990 18.49880 25.37920 14.20946 8.206054 5.945623
385 53.87680 26.37650 36.06970 15.70223 10.37847 11.68199
386 69.22950 42.14390 66.38560 33.13217 23.12866 43.14650
387 69.23150 53.42760 82.52130 40.89544 31.93494 68.75191
388 50.78930 12.03140 87.65470 25.64543 10.95413 76.93880
389 68.48350 14.14830 86.78890 35.31847 15.76436 74.85807
390 55.71290 0.000000 71.68450 22.44991 9.353632 49.88049
391 63.19990 33.55270 86.07330 33.75499 19.49891 74.44132
392 24.62630 6.913700 11.48340 2.820457 1.711518 1.470603
393 48.63440 12.40860 12.03830 10.23903 5.611369 1.761197
394 49.26890 31.97430 12.26430 12.58605 10.84760 2.100710
395 53.27610 37.65550 26.81080 16.17340 14.16151 6.887400
396 67.32590 48.62200 29.57010 26.87487 24.08358 8.750773
397 71.88990 61.62360 39.17400 34.61447 35.81980 15.23424
398 18.17400 47.69590 12.97410 7.110765 14.47266 2.706841
399 17.83730 63.55210 22.35080 12.39247 26.72639 6.308584
400 43.81200 65.05840 47.67860 22.27227 32.12988 22.17849
401 12.68430 38.54750 15.19060 4.544645 9.101143 2.886867
402 20.53300 40.56460 26.17580 6.662332 10.85206 6.689169
403 33.40160 46.14350 25.86550 10.53565 15.23207 6.766718
404 61.51030 56.62520 26.98570 25.48069 28.15398 7.961031
405 62.83030 56.65070 51.53870 29.23013 29.57542 24.91014
406 11.37390 32.02920 86.67540 17.16008 11.26754 74.80852
407 13.01500 47.52070 91.97510 22.40174 19.53348 86.69728
408 14.27570 87.91840 93.48860 38.56126 59.03710 91.89628
409 0.000000 80.57520 81.15630 29.25312 47.21073 67.92813
410 11.73640 24.39810 42.96990 5.105983 4.878906 16.53797
411 12.60050 37.27470 44.40910 7.160739 9.529142 17.75129
412 31.66180 40.67510 68.64910 16.41528 14.67790 45.68768
413 45.25970 61.67120 86.77710 32.03798 33.18677 76.20780
414 68.32890 63.67040 87.12530 45.07119 40.61561 77.39181
415 82.36930 66.29390 100.0000 61.68579 49.76012 106.4889
416 88.12080 16.79230 62.95550 43.35132 20.81395 38.31825
417 87.27400 15.36020 87.93290 49.89227 22.72317 77.52084
418 66.73410 55.78370 60.20510 33.52585 30.81805 35.79713
419 76.44940 65.93930 63.03740 44.21713 42.70106 40.11343
420 4.606600 14.60500 12.51200 1.062782 1.564878 1.767104
421 9.419900 14.80470 21.90700 1.857183 1.937392 4.477815
422 30.24900 21.39910 23.46130 5.550189 4.780993 5.068425
423 45.04800 32.14090 41.32470 13.34445 10.91344 15.15458
424 44.90960 39.78790 52.61890 16.51912 14.70577 25.50749
425 42.94810 47.12410 57.29360 18.46124 18.78907 31.34884
426 49.85340 57.03470 61.79980 25.10189 27.56519 37.76097
427 57.25040 56.08270 66.60640 29.90981 29.16268 44.20016
428 73.14630 66.92140 75.55840 46.08442 44.23261 58.30767
429 87.46380 72.49040 74.63580 58.58181 54.56853 56.77999
430 90.05280 76.13770 85.57560 66.57975 60.73007 76.39403
431 32.43220 23.02110 32.96710 7.175987 5.719612 9.645924
432 38.10240 22.87790 46.16260 10.42636 6.924450 19.06818
433 46.59220 25.24700 62.33260 17.19125 10.16062 36.96752
434 26.13440 10.49460 29.20570 4.400177 2.567587 7.389756
435 39.06720 17.27950 35.29820 8.785568 5.392451 10.94744
436 49.10130 15.97380 50.02370 14.57164 7.604990 22.35739
437 63.95650 13.68370 63.06430 25.18526 11.85255 37.91065
438 83.96060 16.78620 73.07400 42.11230 19.92562 51.66741
439 100.0000 29.35350 84.69350 63.35880 32.07556 72.43797
440 11.92260 24.15560 11.44640 2.278081 3.895059 1.657281
441 13.48410 28.04450 20.78780 3.420052 5.358283 4.279087
442 33.08900 29.81210 84.82660 19.97513 11.87503 72.00694
443 45.08390 47.28080 89.10420 28.76664 22.66053 80.35991
444 14.07070 8.401000 45.91330 4.589342 2.204122 18.44176
445 18.89980 18.59310 60.12990 8.632437 4.941578 33.66477
446 19.00570 17.08510 71.37060 11.52329 5.764856 49.31887
447 18.67660 86.07900 71.16980 30.71887 54.49677 52.17086
448 19.59310 86.42800 81.30000 33.99341 55.68210 68.75309
449 37.68740 100.0000 87.61560 48.10972 78.59124 81.00388
450 88.31560 40.41310 2.862600 39.16916 26.19531 1.353511
451 89.98560 81.21850 9.762700 54.60990 61.64648 4.532625
452 91.51190 82.38230 76.74720 67.32455 67.70551 61.14597
453 52.94630 31.51870 30.28410 15.34563 11.74341 8.473068
454 63.48590 41.79790 47.87920 25.38701 20.00495 21.10803
455 64.79790 69.85770 48.71320 34.76725 41.85447 23.29697
456 70.87120 70.33460 60.15620 41.43686 45.08970 36.28094
457 74.48040 84.29110 63.33460 50.94131 62.40381 42.05038
458 30.17400 51.92850 39.59860 12.61196 18.98044 14.69988
459 33.47580 59.38450 52.58440 17.82949 25.89919 26.34200
460 35.20190 70.19290 77.98590 29.09487 38.68860 61.99819
461 39.14210 87.68060 87.41860 41.43515 60.76611 79.79963
462 55.02400 28.48010 19.29780 15.08450 10.95179 3.877007
463 69.12770 28.87230 24.56430 23.60777 14.90018 5.915006
464 77.03920 9.541900 47.68250 30.17445 14.21356 20.45364
465 83.56850 27.25720 50.51530 37.40742 20.59720 23.27659
466 87.97690 39.19610 64.32170 46.10565 28.06747 40.46122
467 78.08470 31.14580 83.27260 42.51876 22.91828 69.33069
468 77.00790 45.90980 84.01610 44.64189 29.58190 71.42381
469 83.72110 69.76260 88.99690 59.30814 52.08165 81.89739
470 2.336400 0.000000 0.000000 0.171319 0.139810 0.207140
471 50.14700 14.02820 37.97610 13.14828 6.900334 12.70729
472 50.56820 35.00780 55.84140 18.67155 13.94284 28.77121
473 76.81550 45.56470 60.58150 37.65481 26.96303 35.52088
474 89.77840 58.39440 68.21290 54.08106 41.88902 46.56220
475 66.32920 15.09890 12.47590 19.75898 10.43519 1.981617
476 70.16720 14.77040 25.70470 23.09936 11.83421 6.187905
477 11.16780 37.23420 29.09400 5.159741 8.813800 7.892422
478 15.86680 53.03210 30.31230 9.378562 18.25542 9.113164
479 23.71120 73.59810 55.08290 21.46949 38.50425 29.74579
480 52.76510 83.72430 61.02920 36.92931 54.93338 38.65128
481 73.09000 100.0000 72.98130 61.43822 85.42470 56.75137
482 21.50390 33.69650 9.138500 4.658673 7.563967 1.555603
483 21.15080 58.63990 8.430900 10.63863 22.60485 2.430521
484 20.89640 83.27820 36.89640 22.30117 48.05744 14.94881
485 18.60630 86.26530 52.58600 26.16429 52.94609 28.30832
486 0.000000 83.58760 61.86490 25.45893 49.37888 39.25555
487 57.55520 84.94820 73.71960 43.85700 59.75014 56.33715
488 70.31270 87.92200 73.77930 52.64676 66.55608 56.56878
489 80.07030 87.78790 80.69900 61.86852 70.66358 68.57850
490 21.88410 13.02740 7.621000 2.507290 2.069939 0.965804
491 33.96320 14.14520 15.74830 5.526503 3.575968 2.546729
492 33.23450 52.09090 16.53490 11.47091 18.89477 3.809997
493 64.99460 73.75790 82.10910 45.24054 48.84838 69.22136
494 68.44290 73.41310 89.94280 50.07200 50.37571 83.52020
495 8.229800 45.10770 46.81990 8.793787 13.48916 19.92194
496 30.88950 51.45960 60.45150 16.64373 20.17668 35.30276
497 44.18050 72.36410 59.76110 27.90683 40.67242 35.68861
498 26.78590 52.79260 83.23310 22.71342 23.06855 69.63611
499 37.04600 64.47730 84.53560 29.43535 33.91593 73.23942
500 54.22700 74.11980 86.66880 40.67586 46.87504 77.06080
501 74.54010 86.32010 91.73370 60.87382 67.87481 88.93480
502 19.84610 87.93790 17.74370 22.89813 53.64143 6.551337
503 17.78820 96.36560 38.12100 29.32208 66.53611 16.96626
504 32.82700 100.0000 59.53480 38.54140 75.03912 38.17328
505 67.86620 100.0000 88.74500 63.02583 85.39636 83.40713
506 0.000000 22.10610 26.93560 2.389250 3.346096 6.523912
507 0.000000 33.16840 31.81640 4.233922 7.013517 9.148250
508 25.51610 35.84490 32.15650 7.211433 9.296064 9.532881
509 49.27010 45.95150 38.11580 17.32954 18.07980 13.51860
510 50.24650 60.63190 46.90200 23.38270 29.79047 21.26250
511 81.01140 80.13630 54.69360 51.87454 58.88036 30.31373
512 85.85590 84.79290 72.41890 62.28716 67.93558 54.68260
513 44.79990 88.32760 78.51040 40.68453 61.29530 64.21442
514 54.28880 88.42970 86.24360 47.60583 64.13263 78.25161
515 70.65090 90.35180 87.78660 58.56773 71.07971 80.96942
516 58.92040 45.08250 41.22850 22.15109 19.89361 15.65961
517 88.76100 49.30530 42.70610 44.72128 32.65583 17.59865
518 100.0000 52.43440 66.68150 62.59053 42.26128 44.63016
519 0.000000 0.000000 0.000000 0.112120 0.112016 0.206178
520 10.07260 5.993600 14.21050 1.051326 0.782810 1.994846
521 55.88420 71.20920 31.37180 27.92605 40.00158 10.98681
522 67.42520 86.81870 35.97310 42.11947 61.05152 14.99186
523 37.66010 66.15170 17.70020 17.34547 31.11310 4.969628
524 39.42870 100.0000 25.35990 35.31889 74.27027 10.54252
525 79.73570 100.0000 26.46350 57.57562 84.73594 11.16524
526 53.70040 77.62370 0.000000 27.78759 45.77816 2.966504
527 78.25260 88.94450 14.43110 48.84053 66.83982 5.965237
528 20.98560 4.715800 64.30990 9.379297 3.710536 39.09453
529 37.78990 13.91980 65.94740 13.89748 6.495842 41.57696
530 45.95350 64.16210 70.28420 28.14613 33.92842 49.46708
531 62.60700 73.82490 70.89970 40.27357 46.86399 51.39307
532 27.95450 27.77320 12.22650 5.049549 6.043489 1.924116
533 40.77670 33.56890 25.60600 10.24313 10.07201 6.190146
534 38.19590 31.18390 11.48100 8.166124 8.513316 1.861722
535 46.63360 43.96810 12.51510 13.52725 15.55584 2.533202
536 57.01860 61.12460 15.81660 23.48869 30.50594 4.165094
537 65.02970 77.20430 16.18310 34.50591 48.47900 5.375563
538 95.39760 79.72930 35.26680 61.24582 63.11219 14.26532
539 71.28510 67.42630 7.932500 33.95520 40.03744 3.112928
540 75.02470 74.72560 31.62100 41.04527 49.33471 11.59760
541 93.03320 83.10700 61.21980 64.82664 67.55142 39.06576
542 45.59340 53.45340 18.55380 15.73906 21.63118 4.428880
543 49.53980 58.25280 33.57680 20.24104 26.74458 11.44001
544 61.33060 59.14070 43.65440 28.00883 30.83615 18.43759
545 63.12880 73.82250 61.92120 38.08555 46.20191 38.94707
546 17.14100 67.89700 35.76200 15.16384 31.35341 13.07841
547 18.29210 74.12180 81.56800 28.27975 41.15632 68.34469
548 45.80550 82.40690 93.33230 43.56734 55.87045 91.76650
549 64.03180 89.88040 100.0000 59.38476 70.38970 108.1293
550 11.81470 26.33430 61.96390 9.068542 6.683025 36.34570
551 12.48360 36.35140 64.95630 11.41309 10.67965 40.86550
552 23.44620 46.94130 68.65820 16.04130 17.30158 45.92421
553 39.73040 53.45440 69.50710 21.99002 23.58746 47.54652
554 15.83840 31.75620 32.97090 5.214181 7.096293 9.821880
555 22.81910 44.07410 40.41430 9.225907 13.27336 14.86846
556 84.17720 13.09750 12.52940 32.66034 16.13441 2.092908
557 87.90090 18.63460 23.98030 36.72782 18.81655 5.561949
558 87.03100 34.35520 31.95560 38.67911 23.60614 9.675222
559 88.91630 41.00070 52.74000 44.91264 28.70535 26.03746
560 88.35380 41.70040 79.62090 51.43515 31.04316 63.79338
561 100.0000 70.70410 83.77070 74.33693 60.15834 73.24535
562 61.05180 12.50450 32.05000 18.10466 9.108990 9.239403
563 68.58140 39.42970 37.20850 26.65039 19.75921 12.92821
564 68.10810 84.40880 49.31050 43.52513 59.33970 25.15530
565 24.80800 70.17420 62.68440 22.20440 35.90765 39.43818
566 42.35520 73.13400 70.75540 30.34039 41.82061 50.70513
567 56.63940 77.38820 79.62480 41.25810 50.43827 65.53344
568 0.000000 62.33410 43.36160 12.86468 25.69448 18.24904
569 33.06080 68.97420 44.79240 19.81797 34.12302 19.74918
570 39.97410 82.52330 44.00970 27.73548 50.06011 20.23647
571 80.46430 64.56950 0.000000 39.52128 40.21376 2.251248
572 82.36140 70.44470 37.75040 45.85689 48.00233 14.92484
573 17.02820 11.11410 35.58150 3.624089 2.159231 11.03301
574 17.08050 21.17000 47.51160 6.080652 4.587357 19.94862
575 15.37450 16.62410 88.88770 16.73986 7.325338 79.27936
576 13.04710 58.59900 89.55830 24.40078 27.07598 81.50769
577 85.18040 80.90120 91.55190 66.23898 64.77076 87.54207
578 43.75550 32.68320 32.49230 11.87100 10.35539 9.715467
579 58.88910 32.26710 50.25740 21.26591 14.44161 22.78124
580 65.92730 20.22430 49.24670 23.89496 12.70363 21.88633
581 75.28390 28.38580 64.26980 34.40727 19.04123 40.01032
582 86.46220 57.95580 81.49740 54.53622 41.32039 67.94589
583 29.22800 7.480000 40.44800 6.203565 2.994205 14.08201
584 33.46090 12.28680 86.95440 19.06653 7.927161 75.22664
585 47.61960 27.73400 88.37420 25.73434 13.94188 77.99446
586 77.30080 0.000000 21.30380 27.18988 12.64446 4.367198
587 85.70990 15.99230 38.01190 36.19027 17.92740 13.04454
588 100.0000 23.11240 55.26000 54.34602 27.34231 28.66776
END_DATA
CAL    

DESCRIPTOR "Argyll Device Calibration State"
ORIGINATOR "Argyll dispread"
CREATED "Sat Aug 20 16:59:28 2022"
DEVICE_CLASS "DISPLAY"
COLOR_REP "RGB"

BEGIN_ARGYLL_DISPCAL_ARGS
-v2 -ql -m -w0.3127,0.329 -gs -f1.0 -k0 -A4.0 -d1 -c1 -yn -P0.467501009285,0.405269761606,2.11975116641
END_ARGYLL_DISPCAL_ARGS


NUMBER_OF_FIELDS 4
BEGIN_DATA_FORMAT
RGB_I RGB_R RGB_G RGB_B
END_DATA_FORMAT

NUMBER_OF_SETS 256
BEGIN_DATA
0.00000000 0.00000000 0.00000000 0.00000000
0.00392157 0.00939135 0.00876610 0.00965677
0.00784314 0.01764480 0.01657240 0.01829690
0.01176470 0.02495540 0.02356840 0.02607280
0.01568630 0.03147600 0.02987400 0.03310800
0.01960780 0.03733750 0.03560280 0.03951000
0.02352940 0.04264040 0.04085720 0.04537110
0.02745100 0.04748270 0.04570930 0.05077150
0.03137250 0.05195920 0.05023330 0.05578870
0.03529410 0.05615330 0.05449280 0.06050020
0.03921570 0.06012690 0.05853130 0.06496730
0.04313730 0.06392450 0.06238900 0.06923950
0.04705880 0.06757880 0.06609530 0.07335250
0.05098040 0.07112450 0.06968190 0.07734130
0.05490200 0.07459470 0.07317920 0.08123310
0.05882350 0.07800830 0.07660010 0.08504280
0.06274510 0.08138550 0.07995720 0.08878320
0.06666670 0.08473440 0.08325910 0.09247250
0.07058820 0.08806880 0.08652340 0.09612540
0.07450980 0.09138960 0.08975180 0.09975180
0.07843140 0.09471250 0.09295910 0.10336900
0.08235290 0.09803200 0.09614420 0.10697300
0.08627450 0.10135000 0.09931110 0.11056800
0.09019610 0.10467900 0.10247500 0.11416300
0.09411760 0.10800900 0.10563100 0.11774800
0.09803920 0.11133200 0.10877900 0.12131900
0.10196100 0.11464600 0.11192000 0.12488300
0.10588200 0.11796300 0.11507700 0.12844600
0.10980400 0.12127400 0.11824300 0.13199700
0.11372500 0.12457900 0.12141900 0.13553700
0.11764700 0.12787200 0.12459600 0.13905400
0.12156900 0.13115900 0.12776500 0.14256900
0.12549000 0.13445200 0.13093800 0.14608300
0.12941200 0.13773600 0.13410300 0.14957800
0.13333300 0.14100600 0.13725100 0.15306300
0.13725500 0.14427400 0.14039500 0.15654100
0.14117600 0.14753300 0.14353200 0.16000500
0.14509800 0.15078400 0.14665600 0.16346500
0.14902000 0.15404300 0.14978500 0.16693700
0.15294100 0.15731900 0.15292400 0.17042200
0.15686300 0.16060200 0.15607300 0.17390800
0.16078400 0.16388600 0.15922700 0.17740000
0.16470600 0.16718200 0.16239200 0.18090800
0.16862700 0.17049600 0.16557700 0.18443300
0.17254900 0.17381300 0.16877700 0.18795300
0.17647100 0.17712200 0.17197500 0.19147400
0.18039200 0.18042900 0.17517500 0.19500300
0.18431400 0.18374400 0.17838400 0.19855400
0.18823500 0.18707600 0.18161100 0.20213300
0.19215700 0.19042400 0.18485600 0.20572600
0.19607800 0.19376700 0.18810300 0.20932100
0.20000000 0.19710100 0.19134400 0.21291400
0.20392200 0.20041900 0.19457100 0.21650600
0.20784300 0.20374100 0.19779500 0.22011300
0.21176500 0.20707600 0.20102800 0.22373700
0.21568600 0.21041400 0.20427200 0.22736400
0.21960800 0.21373400 0.20751400 0.23097800
0.22352900 0.21704700 0.21074700 0.23459600
0.22745100 0.22036600 0.21398800 0.23821500
0.23137300 0.22368200 0.21723800 0.24182600
0.23529400 0.22699700 0.22049500 0.24543900
0.23921600 0.23033400 0.22377700 0.24907400
0.24313700 0.23370700 0.22710400 0.25274300
0.24705900 0.23712700 0.23048600 0.25643300
0.25098000 0.24057500 0.23390300 0.26013500
0.25490200 0.24404900 0.23735000 0.26384600
0.25882400 0.24754600 0.24082100 0.26757200
0.26274500 0.25107000 0.24431900 0.27130200
0.26666700 0.25461000 0.24782400 0.27504300
0.27058800 0.25818400 0.25135200 0.27881300
0.27451000 0.26179600 0.25490600 0.28261800
0.27843100 0.26545400 0.25848600 0.28646300
0.28235300 0.26914500 0.26209100 0.29031600
0.28627500 0.27281300 0.26567900 0.29414000
0.29019600 0.27646200 0.26922800 0.29794600
0.29411800 0.28011700 0.27275400 0.30175700
0.29803900 0.28379200 0.27627200 0.30558500
0.30196100 0.28748800 0.27978900 0.30943100
0.30588200 0.29119300 0.28330000 0.31328400
0.30980400 0.29491500 0.28680200 0.31715800
0.31372500 0.29864900 0.29030200 0.32104500
0.31764700 0.30239200 0.29379300 0.32494000
0.32156900 0.30614800 0.29727400 0.32885100
0.32549000 0.30992000 0.30075100 0.33278300
0.32941200 0.31372800 0.30423000 0.33675400
0.33333300 0.31753500 0.30772700 0.34073300
0.33725500 0.32133200 0.31121800 0.34471000
0.34117600 0.32511300 0.31469700 0.34868300
0.34509800 0.32887500 0.31815700 0.35264900
0.34902000 0.33261400 0.32159900 0.35660800
0.35294100 0.33634600 0.32502700 0.36056800
0.35686300 0.34008100 0.32845500 0.36454300
0.36078400 0.34379400 0.33189500 0.36851300
0.36470600 0.34749300 0.33532800 0.37247700
0.36862700 0.35120000 0.33876000 0.37645600
0.37254900 0.35491800 0.34221600 0.38045200
0.37647100 0.35865100 0.34571100 0.38446800
0.38039200 0.36242300 0.34924900 0.38852000
0.38431400 0.36625600 0.35284500 0.39262400
0.38823500 0.37016300 0.35651000 0.39679100
0.39215700 0.37413700 0.36025600 0.40102000
0.39607800 0.37809700 0.36408600 0.40524600
0.40000000 0.38201700 0.36794900 0.40942300
0.40392200 0.38590600 0.37178700 0.41354800
0.40784300 0.38978700 0.37559400 0.41763500
0.41176500 0.39367700 0.37937600 0.42170200
0.41568600 0.39756200 0.38314100 0.42574000
0.41960800 0.40145700 0.38688800 0.42975100
0.42352900 0.40535000 0.39062000 0.43374800
0.42745100 0.40924100 0.39434400 0.43772500
0.43137300 0.41314300 0.39805000 0.44169600
0.43529400 0.41704500 0.40174800 0.44566900
0.43921600 0.42092000 0.40544800 0.44962400
0.44313700 0.42479200 0.40913700 0.45355800
0.44705900 0.42868600 0.41281800 0.45749600
0.45098000 0.43259600 0.41651600 0.46145900
0.45490200 0.43650800 0.42025300 0.46543700
0.45882400 0.44043000 0.42401400 0.46943100
0.46274500 0.44435500 0.42780100 0.47344500
0.46666700 0.44829200 0.43161500 0.47747600
0.47058800 0.45223600 0.43545900 0.48153100
0.47451000 0.45618000 0.43933300 0.48560200
0.47843100 0.46012400 0.44322500 0.48968400
0.48235300 0.46406900 0.44712600 0.49377600
0.48627500 0.46804800 0.45103800 0.49788200
0.49019600 0.47202300 0.45496800 0.50203300
0.49411800 0.47597600 0.45893200 0.50619600
0.49803900 0.47990800 0.46287600 0.51035700
0.50196100 0.48382200 0.46680100 0.51451700
0.50588200 0.48772700 0.47070600 0.51867700
0.50980400 0.49162000 0.47460200 0.52284700
0.51372500 0.49549600 0.47849900 0.52702900
0.51764700 0.49935900 0.48239600 0.53121400
0.52156900 0.50320200 0.48629300 0.53541200
0.52549000 0.50705000 0.49016900 0.53960700
0.52941200 0.51088900 0.49403400 0.54381600
0.53333300 0.51470100 0.49789400 0.54803700
0.53725500 0.51849600 0.50172700 0.55224400
0.54117600 0.52228200 0.50553900 0.55644600
0.54509800 0.52606400 0.50934100 0.56065400
0.54902000 0.52985900 0.51313700 0.56486800
0.55294100 0.53366400 0.51694100 0.56910700
0.55686300 0.53741800 0.52076400 0.57336400
0.56078400 0.54111300 0.52456300 0.57757400
0.56470600 0.54477200 0.52830400 0.58173300
0.56862700 0.54841800 0.53200300 0.58586000
0.57254900 0.55204000 0.53567700 0.58997200
0.57647100 0.55564200 0.53932600 0.59405600
0.58039200 0.55923100 0.54295300 0.59811400
0.58431400 0.56280900 0.54656100 0.60215600
0.58823500 0.56637200 0.55015200 0.60617700
0.59215700 0.56991600 0.55371800 0.61017400
0.59607800 0.57345100 0.55725900 0.61415000
0.60000000 0.57696200 0.56077700 0.61810400
0.60392200 0.58044200 0.56425700 0.62202300
0.60784300 0.58389600 0.56769100 0.62590400
0.61176500 0.58733000 0.57108500 0.62975500
0.61568600 0.59073100 0.57445500 0.63357200
0.61960800 0.59410000 0.57779200 0.63734600
0.62352900 0.59745400 0.58110300 0.64110500
0.62745100 0.60080400 0.58440700 0.64485500
0.63137300 0.60417500 0.58771500 0.64862200
0.63529400 0.60758600 0.59104700 0.65242300
0.63921600 0.61105400 0.59441800 0.65627200
0.64313700 0.61458500 0.59784500 0.66017800
0.64705900 0.61818200 0.60133700 0.66414200
0.65098000 0.62183100 0.60489800 0.66815100
0.65490200 0.62543700 0.60850600 0.67211800
0.65882400 0.62897700 0.61207500 0.67601600
0.66274500 0.63245200 0.61559500 0.67984300
0.66666700 0.63586700 0.61906400 0.68360600
0.67058800 0.63923400 0.62248800 0.68731500
0.67451000 0.64257100 0.62587500 0.69098800
0.67843100 0.64589000 0.62923900 0.69463700
0.68235300 0.64920600 0.63258800 0.69826900
0.68627500 0.65252000 0.63592700 0.70189400
0.69019600 0.65583800 0.63926400 0.70551900
0.69411800 0.65915200 0.64260400 0.70913300
0.69803900 0.66245000 0.64593400 0.71273000
0.70196100 0.66573700 0.64925400 0.71632400
0.70588200 0.66901600 0.65257700 0.71991400
0.70980400 0.67228300 0.65589000 0.72349900
0.71372500 0.67554900 0.65919300 0.72708800
0.71764700 0.67881600 0.66249300 0.73066900
0.72156900 0.68206200 0.66577800 0.73423000
0.72549000 0.68529100 0.66904200 0.73778200
0.72941200 0.68850500 0.67229600 0.74132100
0.73333300 0.69170200 0.67553500 0.74485000
0.73725500 0.69488700 0.67876500 0.74837000
0.74117600 0.69806900 0.68198600 0.75190200
0.74509800 0.70126900 0.68521700 0.75544400
0.74902000 0.70448100 0.68845300 0.75899200
0.75294100 0.70770300 0.69169200 0.76254600
0.75686300 0.71093300 0.69492700 0.76610800
0.76078400 0.71417500 0.69816200 0.76968900
0.76470600 0.71743600 0.70140200 0.77327900
0.76862700 0.72070200 0.70463500 0.77687200
0.77254900 0.72397500 0.70785900 0.78047600
0.77647100 0.72726100 0.71108400 0.78409300
0.78039200 0.73056100 0.71431200 0.78773100
0.78431400 0.73388500 0.71755500 0.79141100
0.78823500 0.73725500 0.72083000 0.79514500
0.79215700 0.74068500 0.72414900 0.79894100
0.79607800 0.74418000 0.72752000 0.80275400
0.80000000 0.74768900 0.73090600 0.80653400
0.80392200 0.75117300 0.73425500 0.81027900
0.80784300 0.75463300 0.73756900 0.81399700
0.81176500 0.75807600 0.74085400 0.81770200
0.81568600 0.76152000 0.74412400 0.82142100
0.81960800 0.76498400 0.74739700 0.82515900
0.82352900 0.76847100 0.75068300 0.82890500
0.82745100 0.77196700 0.75397600 0.83265800
0.83137300 0.77547400 0.75726800 0.83642900
0.83529400 0.77900100 0.76056700 0.84021800
0.83921600 0.78254400 0.76388100 0.84402400
0.84313700 0.78609800 0.76720900 0.84784300
0.84705900 0.78966400 0.77054800 0.85169200
0.85098000 0.79326500 0.77391000 0.85558100
0.85490200 0.79690900 0.77731100 0.85948500
0.85882400 0.80056500 0.78074700 0.86335700
0.86274500 0.80418800 0.78417200 0.86720000
0.86666700 0.80779100 0.78757500 0.87103100
0.87058800 0.81138800 0.79096400 0.87484900
0.87451000 0.81497700 0.79435000 0.87866200
0.87843100 0.81856700 0.79773600 0.88247200
0.88235300 0.82216200 0.80113900 0.88628900
0.88627500 0.82577700 0.80456100 0.89011200
0.89019600 0.82940300 0.80801100 0.89391600
0.89411800 0.83300900 0.81148000 0.89770400
0.89803900 0.83660500 0.81495400 0.90148400
0.90196100 0.84019800 0.81843800 0.90527100
0.90588200 0.84379800 0.82193800 0.90906600
0.90980400 0.84740200 0.82546200 0.91284800
0.91372500 0.85098600 0.82900800 0.91661000
0.91764700 0.85455500 0.83255500 0.92036700
0.92156900 0.85813200 0.83610900 0.92412400
0.92549000 0.86171000 0.83968300 0.92786600
0.92941200 0.86527300 0.84326600 0.93160600
0.93333300 0.86884700 0.84684800 0.93535100
0.93725500 0.87242400 0.85045500 0.93909300
0.94117600 0.87600800 0.85406900 0.94284100
0.94509800 0.87959300 0.85769600 0.94658700
0.94902000 0.88318000 0.86132900 0.95033000
0.95294100 0.88676700 0.86496700 0.95407400
0.95686300 0.89035800 0.86861500 0.95781900
0.96078400 0.89395100 0.87227200 0.96156400
0.96470600 0.89754600 0.87593600 0.96530800
0.96862700 0.90114200 0.87960900 0.96905100
0.97254900 0.90473800 0.88329400 0.97279100
0.97647100 0.90833500 0.88699000 0.97652900
0.98039200 0.91193300 0.89069900 0.98026400
0.98431400 0.91553200 0.89442000 0.98399800
0.98823500 0.91913100 0.89815300 0.98772800
0.99215700 0.92273000 0.90189900 0.99145700
0.99607800 0.92633100 0.90565700 0.99518300
1.00000000 0.92993200 0.90942700 0.99890700
END_DATA
