CTI1   

DESCRIPTOR "Argyll Calibration Target chart information 1"
ORIGINATOR "Argyll targen"
CREATED "Tue May 26 09:59:04 2020"
SINGLE_DIM_STEPS "25"
COMP_GREY_STEPS "73"
DARK_REGION_EMPHASIS "1.6"
COLOR_REP "RGB"
TARGET_INSTRUMENT "X-Rite i1 DisplayPro, ColorMunki Display"
DISPLAY_TYPE_REFRESH "NO"
INSTRUMENT_TYPE_SPECTRAL "NO"
NORMALIZED_TO_Y_100 "YES"
VIDEO_LUT_CALIBRATION_POSSIBLE "YES"
OBSERVER "1931_2"
USE_BLACK_POINT_COMPENSATION "NO"
BLACK_POINT_CORRECTION "0.0"
HIRES_B2A "YES"
HIRES_B2A_SIZE "-1"
SMOOTH_B2A "YES"
PATCH_SEQUENCE "OPTIMIZE_DISPLAY_RESPONSE_DELAY"

NUMBER_OF_FIELDS 7
BEGIN_DATA_FORMAT
SAMPLE_ID RGB_R RGB_G RGB_B XYZ_X XYZ_Y XYZ_Z
END_DATA_FORMAT

NUMBER_OF_SETS 825
BEGIN_DATA
1 100.00000 100.00000 100.00000 95.173760 100.00000 110.10710
2 1.9608000 1.9608000 1.9608000 0.1498490 0.1545660 0.2002380
3 3.9216000 3.9216000 3.9216000 0.3770590 0.3867810 0.4650890
4 5.8824000 5.8824000 5.8824000 0.5270370 0.5560190 0.6168680
5 9.8039000 9.8039000 9.8039000 1.0679740 1.1361370 1.2036240
6 13.726000 13.726000 13.726000 1.6923960 1.7949320 1.9417150
7 17.647000 17.647000 17.647000 2.4501930 2.5496670 2.9625630
8 21.569000 21.569000 21.569000 3.6441470 3.8451360 4.1552120
9 25.490000 25.490000 25.490000 4.9261880 5.2061580 5.5970710
10 29.412000 29.412000 29.412000 6.5996190 7.0226400 7.5591510
11 33.333000 33.333000 33.333000 8.4871990 8.9253240 9.9317660
12 37.255000 37.255000 37.255000 10.676040 11.341500 12.072560
13 41.176000 41.176000 41.176000 12.993950 13.701160 15.147840
14 45.098000 45.098000 45.098000 16.116700 17.057660 18.450010
15 49.020000 49.020000 49.020000 18.997070 20.156720 22.297050
16 52.941000 52.941000 52.941000 22.734490 23.997020 26.365670
17 56.863000 56.863000 56.863000 26.635370 28.227710 30.439400
18 60.784000 60.784000 60.784000 30.617400 32.048330 35.269840
19 64.706000 64.706000 64.706000 35.162010 36.990730 40.660400
20 68.627000 68.627000 68.627000 40.998830 43.189870 47.205750
21 72.549000 72.549000 72.549000 45.927080 48.336870 53.251190
22 76.471000 76.471000 76.471000 51.450170 53.896310 59.679410
23 80.392000 80.392000 80.392000 57.550540 60.397140 66.445650
24 84.314000 84.314000 84.314000 64.066440 67.229430 74.305950
25 88.235000 88.235000 88.235000 70.919720 74.374960 82.605060
26 92.157000 92.157000 92.157000 78.631380 82.663800 92.171570
27 96.078000 96.078000 96.078000 87.312700 91.668950 101.35660
28 0.0000000 71.125200 59.959200 24.096600 37.091480 35.805820
29 34.765600 72.909400 66.047000 26.577990 39.855530 42.839590
30 0.0000000 58.286200 67.974200 20.033350 25.138710 47.528410
31 35.853900 67.939200 74.200600 26.941710 35.042950 58.090110
32 100.00000 75.471800 77.457300 73.509120 63.387630 61.649470
33 26.505800 9.3803000 0.0000000 2.6571080 1.9158720 0.2929150
34 42.729000 13.015600 0.0000000 6.7647270 4.2576840 0.4507870
35 51.733200 22.972000 0.0000000 12.029110 8.0085550 0.8451270
36 58.682700 30.066000 26.075200 16.227570 12.015360 6.4839260
37 6.0976000 0.0000000 0.0000000 0.3903780 0.2407790 0.1547310
38 8.3333000 0.0000000 0.0000000 0.4777100 0.2850170 0.1567620
39 10.683800 0.0000000 0.0000000 0.6034230 0.3484560 0.1595230
40 13.157900 0.0000000 0.0000000 0.7450410 0.4203260 0.1628540
41 15.765800 0.0000000 0.0000000 0.8712540 0.4839920 0.1656800
42 18.518500 0.0000000 0.0000000 1.1557240 0.6280480 0.1722400
43 21.428600 0.0000000 0.0000000 1.4879450 0.7959810 0.1812360
44 24.509800 0.0000000 0.0000000 1.8275010 0.9678870 0.1891370
45 27.777800 0.0000000 0.0000000 2.4643750 1.2900880 0.2056700
46 31.250000 0.0000000 0.0000000 3.1738520 1.6491420 0.2224660
47 34.946200 0.0000000 0.0000000 4.3316110 2.2348220 0.2525730
48 38.888900 0.0000000 0.0000000 5.7796060 2.9700750 0.2911260
49 43.103500 0.0000000 0.0000000 7.3131600 3.7444360 0.3400900
50 47.619100 0.0000000 0.0000000 9.0593550 4.6287970 0.3900820
51 52.469100 0.0000000 0.0000000 11.070750 5.6474880 0.4640150
52 57.692300 0.0000000 0.0000000 13.825150 7.0418680 0.5666060
53 63.333300 0.0000000 0.0000000 16.412640 8.3491390 0.6511660
54 69.444400 0.0000000 0.0000000 20.370440 10.351990 0.8391600
55 76.087000 0.0000000 0.0000000 25.049770 12.719960 1.0763900
56 83.333300 0.0000000 0.0000000 29.823370 15.134340 1.2962860
57 88.102200 31.245200 22.908500 35.216030 21.748400 6.0970420
58 100.00000 40.977800 31.918100 49.823210 31.801190 10.191240
59 100.00000 57.719200 37.577800 53.842080 42.202570 15.640870
60 100.00000 72.312100 46.921100 61.782560 55.598590 23.897390
61 27.331800 25.808100 0.0000000 4.2455650 5.0067250 0.7352600
62 44.310200 30.254500 0.0000000 9.7522780 8.5943290 1.0970630
63 0.0000000 0.0000000 0.0000000 0.0846519 0.0860636 0.1479480
64 3.9683000 0.0000000 0.0000000 0.2636570 0.1768100 0.1520830
65 1.9380000 0.0000000 0.0000000 0.1436410 0.1161260 0.1493800
66 0.0000000 6.0976000 0.0000000 0.2898480 0.4848160 0.1987530
67 0.0000000 13.157900 0.0000000 0.7515990 1.3816110 0.3154660
68 0.0000000 24.509800 0.0000000 1.9350310 3.6704430 0.6263770
69 0.0000000 27.777800 0.0000000 2.4945400 4.7202110 0.7795950
70 0.0000000 31.250000 0.0000000 3.1224630 5.9690380 0.9676390
71 0.0000000 34.946200 0.0000000 3.8267270 7.2814640 1.1752870
72 0.0000000 38.888900 0.0000000 4.9442320 9.4529110 1.5388510
73 0.0000000 43.103500 0.0000000 6.1871510 11.830590 1.9814750
74 0.0000000 47.619100 0.0000000 7.5089270 14.348620 2.4128480
75 0.0000000 52.469100 0.0000000 9.2742180 17.735770 3.0152730
76 0.0000000 57.692300 0.0000000 11.376140 21.740270 3.6707530
77 0.0000000 63.333300 0.0000000 13.966230 26.701140 4.5366560
78 0.0000000 69.444400 0.0000000 17.412110 33.322530 5.6420490
79 0.0000000 76.087000 0.0000000 21.207230 40.616930 6.8585130
80 0.0000000 83.333300 0.0000000 26.011240 49.852390 8.2704870
81 61.702800 100.00000 0.0000000 41.056770 76.892820 12.487180
82 80.362400 100.00000 0.0000000 54.220100 83.055160 12.875580
83 0.0000000 0.0000000 1.9380000 0.0960216 0.0910635 0.2076200
84 0.0000000 0.0000000 3.9683000 0.1475950 0.1126120 0.4625640
85 0.0000000 0.0000000 6.0976000 0.1932620 0.1314740 0.6891610
86 0.0000000 0.0000000 8.3333000 0.2395680 0.1508320 0.9235740
87 0.0000000 0.0000000 10.683800 0.3349270 0.1908770 1.3993040
88 0.0000000 0.0000000 13.157900 0.4073800 0.2209080 1.7560540
89 0.0000000 0.0000000 15.765800 0.5044010 0.2616930 2.2452580
90 0.0000000 0.0000000 18.518500 0.7150360 0.3496140 3.2958830
91 0.0000000 0.0000000 21.428600 0.9806730 0.4602600 4.6191250
92 0.0000000 0.0000000 24.509800 1.2470040 0.5725780 5.9399540
93 0.0000000 0.0000000 27.777800 1.5631190 0.7043440 7.5147910
94 0.0000000 0.0000000 31.250000 1.8944500 0.8424330 9.1640240
95 0.0000000 0.0000000 34.946200 2.3909080 1.0494970 11.633840
96 0.0000000 0.0000000 38.888900 2.9181860 1.2700290 14.261580
97 0.0000000 0.0000000 43.103500 3.6008360 1.5581520 17.655780
98 0.0000000 0.0000000 47.619100 4.4304500 1.9083860 21.816440
99 0.0000000 0.0000000 52.469100 5.3238020 2.2847590 26.250780
100 0.0000000 0.0000000 57.692300 6.5695300 2.8060880 32.436890
101 0.0000000 0.0000000 63.333300 8.0774450 3.4447760 39.937020
102 0.0000000 0.0000000 69.444400 9.8949230 4.2172950 48.915270
103 0.0000000 0.0000000 76.087000 12.032010 5.1414550 59.536230
104 0.0000000 0.0000000 83.333300 14.686210 6.2811720 72.620570
105 0.0000000 19.551200 79.899100 14.009950 7.5347550 64.541980
106 17.473100 41.948800 91.497000 23.055010 17.654350 89.931010
107 27.627400 51.036700 100.00000 29.870280 25.217410 103.13610
108 53.417100 64.257800 100.00000 42.584830 39.612950 104.66680
109 70.036100 79.151300 100.00000 58.043260 59.004290 106.85760
110 2.6042000 2.6042000 2.6042000 0.2197580 0.2267570 0.2849640
111 3.2808000 3.2808000 3.2808000 0.2555460 0.2598640 0.3472300
112 3.9683000 3.9683000 3.9683000 0.3764260 0.3861170 0.4663970
113 4.6667000 4.6667000 4.6667000 0.4170810 0.4385550 0.5001820
114 5.3763000 5.3763000 5.3763000 0.4819430 0.5324080 0.6163960
115 6.0976000 6.0976000 6.0976000 0.5694910 0.5963640 0.6938460
116 6.8306000 6.8306000 6.8306000 0.5798800 0.6234430 0.7466300
117 7.5758000 7.5758000 7.5758000 0.7003210 0.7363150 0.8418040
118 8.3333000 8.3333000 8.3333000 0.7981310 0.8366800 0.9538140
119 9.1036000 9.1036000 9.1036000 0.9118760 0.9845850 1.1234610
120 9.8870000 9.8870000 9.8870000 1.0606090 1.1285690 1.2024590
121 10.683800 10.683800 10.683800 1.1439430 1.2004280 1.3845360
122 11.494200 11.494200 11.494200 1.3259680 1.4043530 1.5418990
123 12.318800 12.318800 12.318800 1.4043830 1.4794670 1.6826240
124 13.157900 13.157900 13.157900 1.6071560 1.7457140 1.8611730
125 14.011800 14.011800 14.011800 1.7531730 1.8613280 2.0201860
126 14.881000 14.881000 14.881000 1.9150950 2.0357490 2.1965670
127 15.765800 15.765800 15.765800 1.9944740 2.1197990 2.2917280
128 16.666700 16.666700 16.666700 2.2681570 2.4028740 2.6551450
129 17.584100 17.584100 17.584100 2.4288760 2.5274720 2.9538960
130 18.518500 18.518500 18.518500 2.6726180 2.8121290 3.0814750
131 19.470400 19.470400 19.470400 2.9903780 3.1944810 3.5274160
132 20.440200 20.440200 20.440200 3.1691790 3.3406590 3.6424710
133 21.428600 21.428600 21.428600 3.5990320 3.8037080 4.1398780
134 22.435900 22.435900 22.435900 3.8252800 4.0449010 4.5271260
135 23.462800 23.462800 23.462800 4.2054690 4.4493970 4.8293170
136 24.509800 24.509800 24.509800 4.4468580 4.7131410 5.2490000
137 25.577600 25.577600 25.577600 4.8579800 5.1556750 5.5711820
138 26.666700 26.666700 26.666700 5.2943490 5.6016290 6.2150450
139 27.777800 27.777800 27.777800 5.9050910 6.1631530 6.9153860
140 28.911600 28.911600 28.911600 6.2787740 6.6407860 7.3093530
141 30.068700 30.068700 30.068700 6.9252030 7.2463870 8.0915190
142 31.250000 31.250000 31.250000 7.3542110 7.7778340 8.5329970
143 32.456100 32.456100 32.456100 7.8631680 8.2320280 9.1795260
144 33.687900 33.687900 33.687900 8.6196810 9.0680640 10.136620
145 34.946200 34.946200 34.946200 9.1164840 9.5647190 10.642570
146 36.231900 36.231900 36.231900 9.8026130 10.423100 11.439590
147 37.545800 37.545800 37.545800 10.796970 11.318330 12.539590
148 38.888900 38.888900 38.888900 11.477090 12.090770 13.476840
149 40.262200 40.262200 40.262200 12.553230 13.261630 14.745250
150 41.666700 41.666700 41.666700 13.267610 14.117680 15.464420
151 43.103500 43.103500 43.103500 14.610790 15.489710 16.842800
152 44.573600 44.573600 44.573600 15.491730 16.467630 18.000510
153 46.078400 46.078400 46.078400 16.517040 17.572480 19.158760
154 47.619100 47.619100 47.619100 17.828620 18.839540 20.809600
155 49.196800 49.196800 49.196800 18.820320 19.971260 22.187930
156 50.813000 50.813000 50.813000 20.708690 21.850650 24.171610
157 52.469100 52.469100 52.469100 22.063470 23.303020 25.770500
158 54.166700 54.166700 54.166700 23.679330 24.888750 27.368610
159 55.907200 55.907200 55.907200 25.495510 26.919820 29.684730
160 57.692300 57.692300 57.692300 27.055600 28.289320 31.443960
161 59.523800 59.523800 59.523800 29.393140 30.986850 34.587760
162 61.403500 61.403500 61.403500 31.305840 32.897570 36.516920
163 63.333300 63.333300 63.333300 32.993910 34.728890 39.159750
164 65.315300 65.315300 65.315300 36.164840 38.030200 42.030310
165 67.351600 67.351600 67.351600 38.731010 40.758620 44.897870
166 69.444400 69.444400 69.444400 41.537270 43.645190 48.587300
167 71.596200 71.596200 71.596200 44.268170 46.547360 51.675180
168 73.809500 73.809500 73.809500 47.512000 49.741460 55.638810
169 76.087000 76.087000 76.087000 50.700980 53.381340 59.008490
170 78.431400 78.431400 78.431400 54.037720 56.707970 63.904930
171 80.845800 80.845800 80.845800 58.046210 60.914870 67.439240
172 83.333300 83.333300 83.333300 61.883070 65.078730 72.728370
173 85.897400 85.897400 85.897400 66.940870 70.366560 77.365400
174 88.541700 88.541700 88.541700 71.586870 75.036840 83.859300
175 91.269800 91.269800 91.269800 77.303500 80.818510 90.634270
176 0.0000000 48.267100 30.031400 8.7865070 14.874000 8.8079390
177 0.0000000 56.678700 54.419300 16.017980 23.027080 28.963500
178 0.0000000 70.195700 69.963100 26.559810 37.157180 51.064750
179 82.433100 24.303200 0.0000000 31.613130 17.190170 1.6064590
180 100.00000 23.686200 19.325700 46.183410 24.537050 4.2572490
181 80.243200 0.0000000 16.907000 29.465740 14.917610 3.4849720
182 78.964800 30.145500 43.362500 32.190960 18.963230 17.456320
183 79.964500 49.050000 57.050400 39.037150 29.402680 30.987580
184 56.210700 38.103600 34.827500 17.383550 14.692410 10.996560
185 74.227200 58.410800 36.181500 33.026400 31.913700 13.353700
186 90.712100 62.184000 68.907300 55.971960 45.225350 48.109140
187 100.00000 63.205700 100.00000 73.581060 54.939680 106.37230
188 65.023100 0.0000000 100.00000 35.689940 17.159610 100.56080
189 71.236600 25.429300 100.00000 40.638170 22.646660 102.13420
190 84.885400 45.509700 100.00000 53.786580 35.928430 103.47480
191 100.00000 47.164700 100.00000 67.702100 43.886250 103.99630
192 0.0000000 9.1476000 16.741900 0.9228810 0.9940020 2.5983290
193 0.0000000 20.684800 21.296000 2.1067020 2.9130300 4.0695900
194 0.0000000 21.617600 30.070000 2.9905780 3.4204130 8.0472260
195 0.0000000 73.870200 84.128800 33.024700 41.591500 78.025660
196 23.648400 80.702700 100.00000 42.336700 50.980520 107.50780
197 49.159800 82.361000 100.00000 50.159750 56.724550 108.00930
198 0.0000000 17.770100 100.00000 21.294830 10.750080 100.34750
199 0.0000000 29.020000 100.00000 22.912510 13.875020 100.76820
200 26.465500 70.821900 100.00000 37.632200 40.743590 105.18700
201 51.348700 74.454100 100.00000 46.482940 48.395520 105.92980
202 22.710800 8.9048000 17.360700 2.6548430 1.7757250 2.9162480
203 47.424600 25.411400 26.206400 10.782500 8.1386140 6.3094560
204 77.603100 47.288700 29.647800 30.520630 25.231270 10.008810
205 91.561800 65.352800 34.099200 48.984100 44.673700 13.115780
206 100.00000 100.00000 44.749900 76.222920 92.201100 22.031530
207 39.207100 55.835000 11.360500 12.844660 21.227210 3.5155010
208 58.951900 55.384400 12.698200 21.337990 24.354470 3.6848830
209 100.00000 84.532300 0.0000000 67.924090 68.740880 9.3992930
210 100.00000 84.248100 25.135800 67.617140 68.566380 9.4801240
211 0.0000000 91.269800 0.0000000 32.254210 61.867070 10.154150
212 0.0000000 100.00000 0.0000000 39.670550 76.116100 12.325720
213 36.855200 100.00000 0.0000000 39.670550 76.116100 12.325720
214 83.186200 100.00000 80.260300 70.270820 88.330990 68.830280
215 89.260000 100.00000 90.133500 79.912060 92.934030 87.042460
216 100.00000 100.00000 88.617400 89.692570 97.439860 84.647770
217 15.190500 7.5882000 38.291100 3.6104640 1.9490390 12.511960
218 23.077500 33.632000 49.342800 8.8264900 8.8197320 22.272000
219 49.787300 38.228500 48.632000 16.770560 14.179660 21.833450
220 49.907500 55.573000 48.960500 20.817530 24.358850 22.353020
221 80.215300 66.918400 58.355700 45.079440 43.787130 33.422400
222 100.00000 76.546000 66.225900 69.330280 62.647060 44.152750
223 92.527400 16.490400 39.316600 43.430040 21.810650 14.410570
224 100.00000 24.789700 48.618600 50.017490 26.642560 21.979370
225 100.00000 42.684100 55.880900 54.878180 34.619160 29.900930
226 0.0000000 1.9380000 0.0000000 0.1165300 0.1489060 0.1564740
227 14.283200 7.1562000 0.0000000 1.0001820 0.8725570 0.2212700
228 26.162700 43.003300 34.572900 8.5725740 12.687850 10.469670
229 39.085500 52.607900 47.569000 16.030620 20.561440 21.137240
230 45.100600 63.422800 66.808500 25.915140 31.338680 44.774440
231 51.941700 63.004300 81.029600 33.120430 33.924640 67.747110
232 72.350100 68.125600 100.00000 53.606330 48.480530 104.52830
233 51.499300 8.4495000 49.567200 14.652870 7.0581990 23.592570
234 51.466800 27.273400 50.544800 16.305530 10.704680 24.515520
235 75.430700 37.596700 62.555400 34.522260 21.925820 39.564530
236 31.060100 44.281900 26.624900 9.0061920 13.353220 6.7890680
237 32.069900 45.608700 62.057200 15.809210 16.469180 37.175290
238 49.609700 76.405300 66.498100 32.313310 45.128680 44.015820
239 86.482000 78.235700 100.00000 68.353340 63.718430 107.09040
240 100.00000 88.836900 100.00000 86.862130 83.342160 109.19310
241 60.471200 0.0000000 59.528500 21.623630 10.376400 35.896260
242 68.085300 0.0000000 80.973800 32.577030 15.404170 68.949760
243 89.477200 0.0000000 86.257900 52.011730 25.081590 82.311650
244 100.00000 0.0000000 100.00000 61.901460 30.862760 102.29580
245 69.316300 0.0000000 34.991800 23.096970 11.532450 11.898450
246 84.199000 0.0000000 48.645100 36.695140 18.231620 23.634110
247 79.972300 0.0000000 58.807500 34.882590 17.099300 35.636170
248 100.00000 0.0000000 66.167500 53.112970 26.202650 43.906390
249 62.156600 35.843900 0.0000000 18.981540 14.440610 1.7755500
250 100.00000 70.216300 0.0000000 59.847240 52.490100 6.8533450
251 100.00000 72.238600 27.600900 61.244500 55.073270 8.8065920
252 31.243300 67.131100 0.0000000 16.001950 30.587160 5.2201560
253 54.196600 83.525900 0.0000000 28.711200 51.151940 8.4260910
254 100.00000 100.00000 0.0000000 73.673750 91.602880 13.449080
255 100.00000 100.00000 24.860300 74.094100 91.817510 13.393010
256 0.0000000 52.895400 81.485700 22.320600 22.350670 70.573220
257 0.0000000 61.586500 100.00000 32.408080 32.005740 104.16030
258 29.835800 61.415800 100.00000 33.986360 32.806310 104.21030
259 11.328800 20.176500 38.822100 4.1146740 3.5187650 13.356350
260 27.837200 20.377700 50.523500 8.2378630 5.5541520 23.205940
261 62.126800 51.018800 69.656100 30.463100 26.346760 48.517610
262 73.648800 50.667600 78.189900 40.518780 30.718450 62.884710
263 0.6361000 0.6361000 0.6361000 0.0915486 0.0937952 0.1548340
264 1.2821000 1.2821000 1.2821000 0.1034260 0.1059550 0.1617690
265 1.9380000 1.9380000 1.9380000 0.1497940 0.1544650 0.2011230
266 0.0000000 10.776900 10.786800 0.7486300 0.9953820 1.5028000
267 15.775400 12.595400 24.504100 2.3353730 1.9265790 5.0508120
268 30.399900 100.00000 66.081000 45.933370 78.166600 45.273160
269 58.705000 100.00000 78.944500 53.717630 81.238210 64.740600
270 69.124200 100.00000 89.340400 63.137410 85.682790 84.267720
271 0.0000000 61.285000 45.115600 15.685930 25.556980 18.986110
272 0.0000000 82.445000 54.698400 29.394480 49.684430 29.942880
273 0.0000000 85.804800 72.972900 36.959930 56.898120 55.132700
274 0.0000000 100.00000 100.00000 56.884400 79.159780 111.24030
275 27.756700 100.00000 100.00000 56.708210 79.073870 110.25460
276 0.0000000 86.085500 100.00000 45.813760 57.697770 108.46430
277 22.923800 90.499700 100.00000 48.861730 63.555470 109.19120
278 50.271800 100.00000 100.00000 59.315600 80.398300 110.35620
279 0.0000000 14.927700 57.643000 6.9112190 4.0032530 30.865450
280 0.0000000 28.562900 74.157500 13.396880 9.1952420 55.483720
281 23.271200 11.710900 73.608700 12.793230 6.1073590 53.626480
282 53.633900 21.738400 100.00000 31.475820 17.087090 100.88550
283 90.241300 100.00000 100.00000 85.515430 94.335290 110.06810
284 100.00000 100.00000 100.00000 94.817340 99.609480 110.37830
285 0.0000000 35.989700 16.235800 4.4611240 7.9492470 3.0724800
286 54.847700 40.440600 29.317400 16.812170 15.498300 8.1234190
287 68.167700 41.276000 33.493000 23.835360 19.365130 10.906960
288 100.00000 47.673200 46.730700 53.512910 36.902800 21.356510
289 100.00000 26.631800 0.0000000 45.708500 24.380030 2.2181210
290 100.00000 43.362500 0.0000000 49.441820 31.522300 3.4416120
291 100.00000 57.672900 0.0000000 54.048600 40.657060 4.9835770
292 100.00000 60.537600 22.359600 55.154510 43.544420 6.5836200
293 100.00000 63.392300 53.444200 59.054660 48.087080 29.109080
294 11.133500 0.0000000 12.876400 0.9941210 0.5161070 1.8469870
295 25.026700 0.0000000 20.611700 3.1131400 1.5477150 4.1633020
296 25.399800 43.245000 81.171700 19.825660 16.853200 67.435010
297 40.479800 50.723600 89.613800 28.553200 24.512440 84.508790
298 77.542400 36.450400 0.0000000 29.561980 19.678330 2.2562980
299 82.039900 49.722800 0.0000000 36.277930 28.229510 3.5678070
300 0.0000000 100.00000 30.041300 39.601120 75.501980 13.849650
301 0.0000000 100.00000 53.127400 42.987650 76.915510 30.710880
302 0.0000000 100.00000 71.907100 47.689880 79.415540 52.507380
303 31.849400 100.00000 79.120700 50.029530 80.388150 64.003460
304 0.0000000 84.954000 85.846200 40.672090 56.436170 80.010700
305 0.0000000 100.00000 87.535100 53.386420 81.813040 80.810480
306 39.530900 100.00000 90.053800 54.271950 81.673030 86.769770
307 0.0000000 32.626200 24.909200 4.2586190 6.6636300 5.8249820
308 0.0000000 32.077400 35.196900 5.2236560 6.9517390 11.103930
309 0.0000000 44.749600 50.694500 10.884830 13.960270 24.806320
310 0.0000000 35.435200 49.432000 7.9685540 8.7278650 22.719280
311 0.0000000 36.677200 64.752700 11.968000 10.967580 40.957950
312 0.0000000 48.269700 66.128000 15.458120 16.960540 44.366910
313 0.0000000 3.9683000 0.0000000 0.2038240 0.3182420 0.1784330
314 0.0000000 15.765800 0.0000000 0.8776860 1.6245320 0.3506480
315 13.529500 21.170100 8.6250000 1.8948640 2.9150900 1.1190830
316 67.700700 28.024600 35.713500 22.554030 14.078570 11.568100
317 76.212500 33.714000 72.193200 36.879340 21.717560 53.997820
318 56.691000 23.959600 62.498000 20.949430 12.038300 38.729550
319 60.479300 28.308200 76.077000 27.029670 15.773210 58.887710
320 27.633400 0.0000000 60.504100 9.6857670 4.3406940 34.947070
321 39.368500 22.481000 63.904700 14.150570 8.6562730 38.532540
322 0.0000000 11.955600 27.595900 1.8338940 1.5675190 6.5400120
323 0.0000000 11.484600 38.677200 3.1287750 2.0625760 13.122740
324 0.0000000 85.625600 39.422800 29.070550 53.016020 17.569010
325 52.596100 100.00000 26.175400 39.294450 75.325930 12.425520
326 70.729100 100.00000 29.375600 47.604870 79.537570 12.947800
327 0.0000000 18.518500 0.0000000 1.1316690 2.1167540 0.4168700
328 0.0000000 21.428600 0.0000000 1.5125240 2.8550050 0.5170570
329 15.177900 22.247500 0.0000000 2.1261440 3.3022560 0.5591380
330 34.466000 29.978400 58.721300 12.406520 9.4735660 32.048260
331 48.372100 40.455300 63.836300 19.844770 16.480280 38.824340
332 68.345800 40.288600 100.00000 42.035510 27.720280 102.97680
333 84.885200 62.016800 100.00000 59.359190 47.291320 105.09310
334 100.00000 77.434000 100.00000 79.593270 68.466620 108.29870
335 31.137500 0.0000000 13.276800 3.9316220 1.9986840 2.1592570
336 36.063100 9.4971000 13.856100 5.1198780 3.0043270 2.0933190
337 46.189800 70.464800 33.050800 21.945050 35.801150 11.588890
338 60.552900 82.842700 33.129400 33.020020 51.787180 12.511330
339 68.628800 86.673700 56.593400 44.703400 61.140310 32.976920
340 86.564500 100.00000 66.307600 67.900740 88.024800 46.935480
341 100.00000 100.00000 78.308600 85.426860 95.492820 66.088960
342 22.123800 0.0000000 42.147700 4.9655730 2.2801750 15.898640
343 43.052500 0.0000000 53.100200 12.064580 5.6886900 26.448910
344 72.047100 70.472600 61.404700 40.896870 44.197760 37.152890
345 87.063300 74.681500 88.144100 62.723310 57.310020 82.439380
346 44.275500 0.0000000 14.379500 8.1722410 4.1404070 2.5146440
347 43.634600 22.336100 39.518000 10.809790 7.1935730 14.436740
348 41.114300 0.0000000 26.233200 7.6835320 3.8164080 6.7639080
349 54.027500 0.0000000 26.155400 13.132270 6.5784420 6.8968110
350 65.178800 16.191200 37.306700 20.227010 10.363910 12.624890
351 50.147900 0.0000000 39.105300 12.622360 6.1777910 14.834170
352 65.258400 0.0000000 44.505000 21.354090 10.523090 19.244220
353 100.00000 23.684100 64.447800 53.174670 27.465370 40.750520
354 100.00000 41.912100 67.224000 57.211220 34.898100 44.343420
355 100.00000 0.0000000 34.564100 46.818610 23.550890 11.989480
356 100.00000 0.0000000 49.509400 49.237410 24.572330 23.978640
357 0.0000000 8.3333000 0.0000000 0.3841040 0.6687820 0.2231460
358 0.0000000 10.683800 0.0000000 0.5207370 0.9335140 0.2591460
359 11.006500 12.241200 0.0000000 1.0147630 1.2983820 0.2883050
360 21.445000 15.750200 0.0000000 2.2938070 2.2491460 0.3719090
361 28.645300 43.052800 0.0000000 6.9663770 11.954380 1.9629320
362 37.178300 56.148400 73.965900 23.680460 25.140320 56.743960
363 0.0000000 0.0000000 91.269800 18.332050 7.8650910 90.742030
364 0.0000000 0.0000000 100.00000 20.550230 9.2986040 100.33020
365 0.0000000 39.057100 100.00000 25.116060 18.097310 101.47570
366 0.0000000 50.833100 100.00000 28.524080 24.705060 102.32140
367 0.0000000 73.145200 100.00000 37.980570 42.770160 105.65810
368 22.640300 70.148400 13.527700 17.586470 33.659030 5.6963880
369 26.638800 86.986300 17.794700 28.622220 54.865920 9.0238680
370 51.227100 100.00000 43.838800 40.851970 75.371820 22.051250
371 69.374800 100.00000 51.750600 51.274050 80.538660 29.578830
372 29.806500 21.786600 10.086800 4.4673890 4.2752890 1.4448460
373 29.394800 32.586500 20.946300 6.1018110 7.5038070 4.1354750
374 27.996400 55.593700 29.219800 11.257560 19.952890 8.4498950
375 0.0000000 54.592700 20.305900 10.178000 18.893310 5.1143100
376 0.0000000 75.655500 22.253500 21.002670 39.930660 7.6712050
377 45.630100 62.626800 0.0000000 17.123960 27.826670 4.6045860
378 64.667200 62.484000 0.0000000 26.355130 31.478590 4.8521410
379 73.990700 77.941700 32.212200 39.785900 50.696020 11.299600
380 66.896000 76.512200 76.013100 44.254970 49.964290 59.573630
381 66.111500 100.00000 100.00000 68.973840 85.216380 110.65370
382 79.414200 100.00000 100.00000 77.456600 89.515520 110.84670
383 31.123400 0.0000000 80.014300 16.132040 7.1296620 64.453580
384 48.491300 0.0000000 100.00000 28.286150 13.284630 100.52660
385 83.082900 0.0000000 100.00000 47.185080 23.250280 102.06440
386 91.269800 0.0000000 0.0000000 37.149200 18.850850 1.5970730
387 100.00000 0.0000000 0.0000000 44.313020 22.452200 1.8988600
388 100.00000 0.0000000 21.425400 45.470460 22.992610 5.4339570
389 100.00000 26.794700 36.625000 48.235830 26.277420 12.569760
390 100.00000 41.247900 81.723300 61.725720 36.435330 69.083640
391 100.00000 58.372100 85.903900 68.387650 48.112750 77.269750
392 29.018700 11.585400 28.492000 4.7101040 2.8639550 7.3052460
393 45.859300 20.135500 28.509600 9.8972630 6.3907810 7.2190840
394 73.215900 0.0000000 24.687300 24.606850 12.410960 6.1903340
395 86.870900 0.0000000 36.471800 37.105640 18.616280 13.279580
396 100.00000 0.0000000 82.484100 58.297230 28.418720 71.335760
397 100.00000 24.351200 82.205900 58.812320 30.089940 70.702370
398 100.00000 27.159400 100.00000 63.407970 35.135530 103.06760
399 34.760800 81.368400 65.857200 31.290890 49.424310 42.737020
400 58.313200 87.036500 70.514300 42.751470 60.310430 50.520650
401 85.971200 90.022700 100.00000 75.177230 77.829470 108.14070
402 27.771000 0.0000000 100.00000 22.388940 10.122050 100.37730
403 31.496900 21.766000 100.00000 24.465060 13.361510 100.79440
404 49.157600 51.778500 100.00000 35.473220 28.745090 102.58340
405 68.170800 55.193400 100.00000 46.149480 36.400610 103.19420
406 46.423900 49.900200 0.0000000 13.905880 18.425080 2.9105610
407 82.007600 64.814800 0.0000000 41.226990 39.700590 5.5914680
408 83.412700 81.783800 0.0000000 48.128540 58.569080 8.6739710
409 16.709100 66.865400 46.041500 18.955750 31.777500 20.155300
410 27.532100 77.558400 49.819900 25.244050 43.056610 24.557810
411 36.299000 90.764600 52.981800 34.602790 60.524790 29.035480
412 52.563600 100.00000 63.219300 45.299340 77.282120 41.538680
413 71.187800 100.00000 70.073800 57.509470 82.611050 51.896540
414 17.367500 33.698500 0.0000000 3.5990960 6.8697850 1.1250000
415 34.968600 36.343400 0.0000000 7.2980490 9.3920430 1.4367570
416 52.863700 42.883800 0.0000000 15.381800 15.506000 2.2263960
417 67.860900 50.443300 0.0000000 26.194630 24.147950 3.3792330
418 76.734800 68.230200 39.075500 39.541200 41.929490 15.264510
419 100.00000 85.371700 46.654100 69.690550 71.116710 22.987320
420 100.00000 86.276700 64.217700 73.356720 73.589880 41.891920
421 100.00000 88.049300 79.462100 79.459890 78.191760 65.956160
422 100.00000 88.132700 89.308200 83.285400 79.819610 84.898150
423 40.624200 43.825100 27.341100 11.724800 14.300570 7.0764850
424 51.683700 59.992500 42.797900 21.792760 27.600710 17.358950
425 61.819900 75.774200 59.881400 36.209970 46.254250 35.385270
426 94.086000 94.086000 94.086000 82.551370 86.874430 96.817280
427 35.666700 21.986800 86.476100 20.578300 11.112750 76.636200
428 35.775400 37.338300 86.336700 22.468840 15.929520 76.426870
429 0.0000000 41.440300 81.465700 18.642200 15.485640 68.849340
430 8.4788000 62.535200 89.406800 29.133950 30.807080 87.192040
431 40.190400 70.682900 89.361500 35.621250 40.225180 87.557970
432 40.879200 87.924800 88.458700 43.729490 60.694660 85.859140
433 21.238400 82.327000 81.823400 37.502170 52.525140 72.087740
434 16.899300 74.976700 69.692600 28.708630 41.778320 50.300690
435 13.818300 91.518700 73.119200 40.775420 64.762110 54.681300
436 16.581000 94.974400 88.246400 49.668000 73.007440 84.860030
437 15.553900 54.555100 60.744800 16.121770 20.788770 36.538000
438 49.931700 56.208800 68.092900 25.816210 26.679260 46.115240
439 72.588100 64.073900 86.483900 46.232250 40.998080 78.180500
440 85.908700 68.325600 91.034500 60.664250 51.406410 89.699650
441 65.077100 10.591600 53.648400 22.617180 11.014040 28.333760
442 95.070800 15.304300 53.350300 48.384450 24.082280 27.925550
443 80.316300 14.925200 44.051500 32.286750 16.079530 18.388790
444 98.552900 37.477400 45.544400 49.719430 30.092400 19.306270
445 88.916100 39.440500 38.066900 38.877950 26.382650 14.166730
446 90.093200 50.851200 41.786500 42.967520 33.421480 18.135350
447 89.823600 56.241700 54.007500 47.510700 38.003970 28.629050
448 100.00000 61.796700 64.285700 62.272530 48.136630 40.303470
449 39.797800 15.199200 29.934200 7.8725910 4.7620590 8.1971050
450 41.237900 25.877500 33.985500 9.4679930 7.3863910 9.9958380
451 66.694600 31.107100 44.314400 23.612330 15.110070 17.985030
452 31.059500 7.7815000 20.076400 4.2675560 2.3897360 3.8612810
453 48.052500 27.868900 19.501500 10.617980 8.5642700 4.1598280
454 56.221400 49.125300 44.899000 20.998930 20.824630 17.957310
455 64.852600 48.663000 45.758400 25.792940 23.002410 19.472190
456 66.144900 56.471100 59.510400 31.991580 30.006090 34.208980
457 70.604800 60.729400 69.334100 38.312670 35.456770 48.148740
458 78.586100 53.236300 23.340800 31.577190 28.333970 7.6117440
459 81.847100 65.755500 47.945000 43.416690 41.925810 21.901720
460 85.085200 75.358900 60.744500 52.856380 53.868060 36.305140
461 60.536600 59.560800 67.757100 31.771340 31.867660 45.259750
462 80.308800 67.913700 71.884700 48.814850 45.611430 51.985510
463 92.491500 76.938200 73.900300 64.469410 60.256930 55.676320
464 92.394000 86.137400 81.103200 71.214940 72.503280 68.639060
465 43.977800 39.851400 11.663700 10.889300 12.378030 2.1639510
466 61.478500 48.680700 15.361800 20.459060 20.355270 3.6106760
467 72.814800 58.320200 25.634500 30.539510 30.624150 8.0379980
468 17.997000 39.813700 17.679500 5.4933270 9.9372540 3.5014200
469 21.526500 47.435100 30.383500 8.5237540 14.427340 8.5528510
470 23.824300 47.795400 43.387300 10.423160 15.451880 17.332190
471 0.0000000 0.0000000 0.0000000 0.0850004 0.0864066 0.1489120
472 86.026900 23.607200 100.00000 50.480000 27.792470 102.65470
473 100.00000 100.00000 100.00000 94.635740 99.365050 110.54050
474 55.360300 39.077500 57.915200 21.356100 16.713420 32.124800
475 56.100700 43.335800 75.000200 27.078680 21.028630 56.681670
476 64.572400 43.449300 89.673300 36.879410 25.363750 84.257140
477 28.886400 10.914200 55.939200 8.9455520 4.6160140 29.152850
478 44.922100 16.457800 56.580800 13.807290 7.5486220 30.461500
479 85.081800 15.245000 57.555400 39.219310 19.333440 33.267200
480 92.585200 14.580300 69.162700 49.310520 24.172760 50.765790
481 10.689600 4.5152000 11.636200 0.9445500 0.6667860 1.5726920
482 18.571000 6.1655000 21.231600 2.1440640 1.2910820 4.0397200
483 34.265100 51.241500 20.848700 10.678210 17.465240 4.7753560
484 18.682000 53.459900 14.897100 9.4422230 17.912930 3.4599840
485 17.566700 69.835100 32.939800 18.476130 33.562040 11.590820
486 15.347300 83.409200 46.092800 28.685810 50.751360 22.244860
487 24.347300 86.156800 77.099300 38.333890 57.313790 62.520820
488 57.986900 89.900700 84.690600 48.362320 65.133670 76.896450
489 8.8392000 8.0313000 30.391400 2.1761250 1.3568950 7.7414190
490 24.924800 7.1650000 33.529200 4.2363190 2.2486510 9.6849650
491 32.144500 9.6450000 45.596400 7.4888420 3.9416160 18.528050
492 32.220300 66.887600 52.065800 19.783310 31.666050 25.677460
493 43.747000 77.918800 77.155200 33.749410 46.226790 62.648860
494 64.313500 83.130500 84.903900 48.955630 58.205260 78.296850
495 13.996100 52.916500 42.533200 11.887800 18.684620 16.496430
496 22.197800 57.116700 53.584200 15.591450 22.675490 27.318450
497 32.409000 63.135800 63.862800 20.449400 28.150610 40.564380
498 12.658100 37.203600 34.353200 6.1680580 9.0802550 10.412060
499 22.692400 43.908300 47.257100 10.229120 13.238250 21.513460
500 36.603200 54.479900 55.387800 17.100900 21.662500 29.199180
501 38.177400 62.441400 55.883300 20.080110 28.144360 30.102750
502 0.0000000 24.122300 53.965600 7.0707800 5.5397890 27.110620
503 14.583000 29.404800 59.130100 9.3230590 7.6522500 33.587350
504 28.204600 35.638500 61.357800 12.421260 10.980830 35.198990
505 86.680400 38.812400 60.565000 43.415960 26.447700 35.975570
506 87.837300 49.878100 66.076700 48.039940 33.428700 43.224310
507 0.0000000 0.0000000 0.0000000 0.0850336 0.0864746 0.1489190
508 9.1635000 4.8250000 22.123500 1.3142990 0.7467980 4.1135410
509 13.029700 10.796800 49.022600 5.2901120 2.8613640 21.439660
510 39.577200 9.8778000 66.719500 14.011620 6.7965450 42.171620
511 53.292200 12.422100 67.211400 19.314400 9.3947120 44.290660
512 89.381600 30.541500 69.292300 47.192490 25.408970 50.321360
513 75.028000 23.512200 60.547000 31.409420 16.560660 36.271980
514 91.359500 45.818300 73.376000 53.325780 33.960680 56.539030
515 100.00000 58.748100 73.668800 64.452370 47.012230 55.050980
516 49.855600 0.0000000 74.781000 20.250010 9.3211970 56.716500
517 76.215200 31.865100 85.810700 40.477450 22.785890 78.247620
518 67.074900 13.848300 74.128300 29.153960 14.047620 57.734030
519 68.693000 18.785600 86.811100 34.866080 17.325590 79.532270
520 22.085300 51.781500 77.954900 20.235480 20.536600 63.113550
521 22.022300 63.563600 83.926600 27.250040 30.648770 75.924390
522 25.910800 81.340200 87.601200 38.722330 51.060710 84.594250
523 68.393200 9.0821000 11.816000 20.021460 10.161670 1.9359750
524 74.773200 24.299700 10.527100 23.004080 13.857790 2.1562210
525 90.271100 43.236100 9.9036000 40.435950 27.496370 3.1571430
526 100.00000 44.578200 20.451200 49.978100 32.837190 4.7929340
527 100.00000 100.00000 62.607700 80.034550 93.577040 41.078680
528 0.0000000 65.605800 84.441600 28.571010 32.671260 77.862890
529 10.623300 75.253900 91.032500 37.039280 44.370110 94.739690
530 16.475600 5.6648000 9.5322000 1.3932410 0.9186190 1.2024760
531 26.360900 7.4016000 8.7758000 2.7588020 1.7450670 1.1369430
532 46.349500 27.953700 9.3001000 9.4699540 7.8411200 1.6743460
533 46.637400 79.139800 14.162100 23.443220 44.128090 7.3887740
534 64.709100 91.088100 13.840900 37.831420 63.470620 10.127310
535 86.058800 100.00000 23.870300 58.890420 84.595700 12.900850
536 85.407400 100.00000 47.454000 61.461100 85.026290 24.932140
537 13.126500 57.359200 32.944800 12.214490 21.240840 10.543750
538 17.520300 86.274400 32.734300 28.700450 53.721680 13.038380
539 56.925800 88.434900 47.142700 36.300230 58.907760 23.176580
540 43.466100 57.461600 33.286800 16.447760 23.388890 10.874520
541 44.285200 63.216700 46.590700 20.413810 28.800870 20.685680
542 51.920100 67.215400 57.381500 27.286510 35.350390 31.405720
543 67.419700 17.628600 46.692500 23.470480 11.859580 20.995980
544 69.044800 18.636100 65.529500 28.020290 14.095510 43.885460
545 80.852500 49.633300 72.832800 43.882390 31.326280 55.128010
546 88.085500 61.473300 76.857100 54.706910 43.180860 61.786470
547 52.925400 38.820600 13.578700 14.440640 13.549080 2.5969920
548 66.666800 43.751400 14.029100 21.592030 18.952020 3.6192070
549 73.671500 74.790200 12.262100 36.806230 46.149910 7.0286090
550 77.016100 87.820500 11.674200 45.081820 63.566490 9.7345660
551 91.504100 90.893800 11.197000 59.773810 73.535760 10.834750
552 12.835800 39.089700 28.142900 5.9906450 9.7866400 7.1120320
553 30.762100 40.841300 40.919400 9.7168750 11.851090 14.918890
554 41.076800 48.852300 51.574700 16.487730 18.596660 25.205410
555 60.114800 62.604800 52.624300 28.530760 32.481360 26.296690
556 33.972300 19.243800 0.0000000 4.9308490 4.0295370 0.5234620
557 46.574600 19.097500 17.080300 8.8379390 6.0803930 3.2422790
558 47.429600 49.599600 15.851500 14.068470 17.957420 3.0850930
559 62.255700 50.589600 28.519800 22.324690 22.301340 8.3750570
560 63.436000 61.517900 29.941300 26.225410 30.592700 9.3200760
561 87.562700 62.657200 52.974600 46.689670 41.338670 27.165810
562 91.029900 66.749100 64.392000 55.646250 48.457690 40.665140
563 19.932700 9.9527000 7.4464000 1.9084170 1.5180810 0.8956290
564 28.609500 15.345600 10.286000 3.6007210 2.9317510 1.5184760
565 69.096300 17.746600 24.338400 20.980260 11.360190 5.4900250
566 84.938500 31.566600 38.874300 35.753270 21.428290 13.786030
567 91.140500 33.135100 53.114600 45.190010 25.617440 26.239560
568 40.613300 28.932500 16.692800 8.2127040 7.6375120 3.1532150
569 58.500800 37.151000 20.218200 16.651750 14.210330 4.5025420
570 67.530200 48.515300 33.638000 25.092960 22.758920 11.366550
571 69.537800 58.491700 47.084700 31.586990 31.192480 20.810580
572 73.980200 87.299800 68.106600 51.769710 64.821650 47.971080
573 89.346500 93.754200 77.752800 70.784130 80.828920 63.755230
574 100.00000 100.00000 100.00000 94.514890 99.238930 110.64930
575 57.633100 64.165200 11.610300 22.874680 30.997440 4.9096290
576 59.569600 78.480600 16.684500 29.276790 46.187160 7.4617270
577 45.346600 64.767100 75.527800 29.270430 32.969730 59.229000
578 62.911700 67.540600 89.573300 43.144100 42.126760 83.938060
579 0.0000000 0.0000000 0.0000000 0.0850718 0.0865581 0.1490370
580 7.4441000 17.041200 16.956300 1.4195870 1.9524050 2.7135200
581 11.320200 21.391100 25.439100 2.5632020 3.2185500 5.6400830
582 39.566900 30.880600 45.917100 11.359630 9.4510080 18.854890
583 90.699900 35.715700 88.305300 55.036990 30.453650 85.824590
584 79.548700 0.0000000 70.335200 37.446630 18.127060 52.610110
585 83.593000 20.574300 73.180400 41.409120 20.443720 57.370770
586 39.111700 8.3865000 33.543100 7.6129160 3.7423400 10.437980
587 54.999900 18.253300 44.931900 16.171360 8.8480600 19.222820
588 62.962600 29.566900 58.423500 23.752550 14.528730 33.370410
589 62.659100 40.426900 68.283500 27.877020 20.215500 46.300480
590 38.712600 51.043500 60.095600 18.293310 20.294750 35.132250
591 50.768600 57.646100 62.469300 24.686050 26.800360 37.637990
592 16.527500 22.822400 61.084500 9.0621460 6.0629930 35.150630
593 17.850100 27.305200 90.545400 19.544850 11.239510 85.637850
594 12.805900 32.102200 84.003500 17.405690 11.793100 72.632890
595 14.973700 52.755000 88.979200 25.213030 23.444120 85.516850
596 31.858200 62.092700 90.126000 30.091110 30.906370 88.168360
597 50.157900 65.241800 92.023400 37.587910 37.018350 91.584810
598 76.512300 60.481500 77.054500 44.329320 37.604670 60.662020
599 90.516000 61.903900 87.030100 60.568280 46.156560 80.892330
600 17.784600 24.764600 19.210000 3.1171110 4.1839550 3.4584810
601 22.391600 30.757500 31.388400 5.3378410 6.4768050 8.5848300
602 24.539400 32.670000 39.127400 7.1146260 7.7149970 13.779540
603 0.0000000 21.925400 12.844800 1.8531400 3.0546310 2.0436010
604 11.315700 27.374800 17.581200 2.7859310 4.5898640 3.0560470
605 11.344600 31.773300 41.509300 6.0043140 7.0069030 15.862570
606 53.598400 73.187000 48.452700 28.417070 40.762480 22.887630
607 67.552700 75.322200 67.371000 41.125720 47.674020 45.213820
608 74.222700 78.996000 88.261700 54.701500 56.945580 82.093410
609 76.982300 86.897000 91.156300 62.171760 68.453470 90.650020
610 11.428900 27.639800 24.733900 3.1962470 4.6902520 5.5485340
611 13.859600 31.316600 35.236500 5.0046570 6.4546090 11.261940
612 17.804400 67.396400 70.347400 24.895990 33.780030 51.352370
613 19.423500 70.626000 80.517600 29.822610 37.881370 69.449210
614 35.318900 77.395200 89.728200 36.747580 45.543430 89.230310
615 22.817200 22.060500 29.092600 4.3089630 4.1446320 7.1525340
616 43.877600 32.662700 29.425700 10.511050 9.5406090 7.6703400
617 52.984200 32.367900 37.005100 15.116350 11.700290 11.780880
618 65.924600 37.902000 40.582900 22.988190 17.374940 15.020320
619 66.090600 60.683400 55.109400 31.969500 32.500950 29.103990
620 12.226900 63.430600 19.336700 13.923000 26.436670 5.1749520
621 5.4753000 87.637800 20.521400 28.854870 55.333000 9.0969730
622 29.411800 100.00000 24.853900 39.135020 75.109470 12.313940
623 27.402000 100.00000 47.194000 41.674380 76.168780 24.905060
624 44.630500 67.982800 14.359400 18.296120 31.979240 5.3293350
625 87.864000 70.966400 27.237600 47.932010 47.734450 8.4051000
626 88.325000 86.282700 26.777800 54.607770 65.471730 9.9463050
627 98.306500 89.420100 39.867300 68.827290 74.549960 17.142710
628 20.692900 43.044300 10.006800 5.9811880 11.398210 2.0739660
629 36.232600 43.228400 15.524900 9.1705340 13.001240 3.0794110
630 86.740800 75.308100 11.176900 48.754060 51.353380 7.3397350
631 86.491400 78.593500 39.710000 51.098150 55.364050 16.024790
632 58.667100 0.0000000 14.188200 14.718580 7.4619130 2.4949010
633 90.039900 6.8701000 26.725300 38.835550 19.598750 7.0035090
634 94.003700 22.625600 26.047000 42.907170 22.587970 6.3238580
635 36.822300 15.217100 8.0631000 5.2688870 3.7801270 1.2664030
636 37.933100 22.933000 18.371000 6.7861780 5.5321250 3.3658770
637 26.904000 22.631700 17.037300 4.1946430 4.2317300 2.7490440
638 35.050800 25.602800 27.069100 7.0534170 6.1222870 6.4805050
639 59.729700 43.184500 47.472400 21.970920 18.655690 20.864680
640 76.033100 53.871400 53.751100 35.918340 30.398090 27.482520
641 76.269000 62.583400 61.385600 40.802450 38.174270 36.770030
642 51.341300 47.387200 25.381900 16.177570 17.880640 6.2805350
643 53.172200 56.425500 33.116200 20.015950 24.590230 10.465130
644 58.494800 71.803900 39.660800 28.432960 39.279560 15.736840
645 70.624500 73.818500 43.295700 36.892380 44.755780 18.362640
646 75.752400 78.997700 60.557600 46.305590 53.911450 36.058050
647 10.059000 30.648600 51.930300 7.6325070 7.2233810 25.271370
648 11.928200 41.477200 58.351800 11.520740 12.438240 33.592850
649 15.134700 42.831800 66.597600 13.931160 13.997790 43.948060
650 17.645500 54.588800 70.952000 19.146050 21.697050 52.682130
651 26.157900 62.909200 75.092500 23.965850 29.229630 59.664540
652 13.452200 43.307000 52.732800 10.671890 13.001620 26.544920
653 25.304200 51.901600 62.223200 15.820830 18.935150 38.754490
654 24.300600 87.325600 62.883000 34.862340 57.876180 39.011590
655 44.755700 91.422100 67.430100 38.601810 63.238570 45.803320
656 26.612700 36.298800 16.057100 5.7892970 8.7116430 2.8804880
657 45.167000 38.597100 24.083200 11.763910 12.130620 5.4793580
658 45.907000 41.004900 34.454700 13.575080 13.885220 10.578110
659 59.777900 87.904700 93.559300 53.096570 64.630810 98.911680
660 69.622600 88.269300 100.00000 63.014720 68.595730 109.54690
661 12.643300 18.620300 68.745200 10.299860 5.6923760 45.594650
662 18.866100 32.382800 71.182200 13.698120 10.276560 51.225650
663 39.224800 32.049800 71.545700 17.530910 12.469590 49.903270
664 67.735900 54.007400 84.629300 39.620640 31.744920 74.640940
665 0.0000000 67.250500 36.578700 17.585330 31.089860 13.748510
666 14.846400 75.776300 58.237500 26.024290 41.909650 32.965840
667 12.343300 93.910100 58.553400 38.516210 66.499040 35.123880
668 0.0000000 44.746600 39.040500 8.7682090 13.188120 13.968700
669 9.6206000 46.041100 46.123200 10.365220 14.501760 20.000560
670 70.205400 45.855000 62.949900 32.498510 24.610320 39.419380
671 8.1176000 9.8951000 15.408600 1.1012370 1.1234140 2.1713360
672 17.631100 13.279300 19.392200 2.2399860 1.9857740 3.3592080
673 35.322000 16.605100 20.996900 5.7658700 4.0309950 4.0375900
674 50.852000 11.612300 20.641300 10.752920 5.7180930 4.0233640
675 55.661800 22.484400 28.936400 14.295210 9.1252980 7.5687780
676 60.447900 71.137700 27.536500 27.175870 37.977550 8.4818920
677 23.250200 51.887600 0.0000000 8.7613430 16.748050 2.8575870
678 30.871400 55.606100 41.951100 13.442940 20.849560 16.133200
679 39.108500 49.706800 37.239700 13.419700 17.690830 12.623620
680 50.040200 50.447500 40.305900 18.134410 20.297000 15.188440
681 63.395100 81.754800 73.418700 43.022100 54.605800 54.468010
682 77.540900 87.503600 79.051600 57.974250 67.649180 65.535700
683 92.789900 93.290600 86.982000 77.299610 83.259830 80.760810
684 6.8746000 45.476900 19.953200 7.2744970 13.187250 4.5555130
685 57.630900 49.759600 38.286300 21.127030 21.357640 13.526970
686 74.555200 52.863100 44.799500 32.211970 28.397830 18.888740
687 63.073900 19.811000 0.0000000 15.769480 9.3049680 0.9048120
688 77.222400 21.623100 19.830400 25.500530 14.447950 4.4685330
689 88.861900 50.924100 20.838600 38.853420 30.712590 6.3136240
690 88.747500 59.640900 41.044900 44.072770 38.218140 17.496990
691 93.006100 72.635200 57.556800 57.477010 53.740250 32.684000
692 24.486400 29.953400 6.3298000 3.9531200 5.6922930 0.8990510
693 36.045200 31.197500 11.882000 6.9517600 7.6086990 1.6844040
694 54.989200 64.331200 61.467000 28.540370 33.317870 36.668340
695 61.284600 68.763600 73.608200 37.209410 40.332850 55.484550
696 25.071000 15.915500 16.955300 3.3302690 2.7735860 2.6541800
697 29.112000 18.272000 25.417700 4.7481590 3.7401960 5.6119690
698 29.577200 20.840600 34.017100 5.8826300 4.6384420 9.9691080
699 30.761000 23.162600 73.242600 14.776150 8.6957460 53.156120
700 49.027800 33.219200 82.307300 24.503020 15.894450 68.729640
701 15.456500 8.1335000 58.838300 7.4797710 3.4810140 32.437980
702 18.332100 12.806100 88.646900 17.560310 8.0297360 81.713190
703 48.735900 9.1214000 87.524600 23.985380 11.093400 78.292460
704 57.769300 29.158700 89.962800 30.711540 17.630770 84.356410
705 41.160200 26.520900 51.556400 12.237560 8.7518560 24.365690
706 50.458700 31.375300 65.593400 19.446120 13.136160 41.562780
707 54.757700 47.103900 88.300000 31.986860 24.416830 79.971350
708 63.771500 58.995300 94.540500 42.560110 35.785900 95.884600
709 17.736700 65.985300 57.601800 20.436240 31.080410 31.521900
710 53.313400 72.285700 70.640100 33.043740 40.984350 51.383380
711 62.112800 72.348500 82.594400 41.756310 44.660440 71.562750
712 88.476600 79.635700 83.111400 64.633960 62.555840 72.319530
713 89.045400 84.407400 92.790900 70.921260 69.931480 94.075940
714 35.479100 30.404800 36.753700 8.7494750 8.1499350 11.794640
715 47.103300 37.143500 39.716700 13.890020 12.621300 13.895100
716 32.481100 63.242400 20.951200 13.715800 25.961370 5.3457820
717 37.543300 80.600800 25.723400 23.672710 45.074790 8.4468750
718 37.267600 89.670800 40.647300 31.962890 58.721700 18.075900
719 47.666000 90.391900 79.784100 41.813930 62.904140 65.593770
720 49.337300 90.519700 100.00000 54.610440 66.686590 109.78020
721 39.474300 39.586600 47.644700 13.139740 13.008420 20.486980
722 42.584100 42.658200 58.307800 17.034530 16.145970 31.619840
723 51.424300 48.323800 58.235100 21.178980 20.190340 31.478160
724 51.835900 50.936800 70.492800 25.754660 23.778520 49.789140
725 82.837600 50.967400 91.333900 51.869860 35.860540 91.551690
726 4.0246000 7.8598000 21.307100 1.1302840 0.9191070 3.9035030
727 6.6227000 15.739800 24.387400 1.8114340 1.9113420 5.1756500
728 24.331800 24.339300 44.077900 6.6826240 5.5947150 16.979120
729 33.067900 33.375700 51.867100 11.067600 9.8504760 24.564590
730 36.779200 45.888400 69.627400 19.077300 17.999330 48.505700
731 62.894700 61.805500 77.262800 36.353030 35.145450 60.003230
732 72.097600 95.000600 79.451700 57.913170 76.322630 66.133280
733 85.066200 58.433600 12.489700 38.716570 34.149720 4.6411710
734 94.642100 69.128800 13.964200 54.347990 48.734350 6.5094830
735 17.880600 15.752900 9.0586000 1.9818130 2.1130270 1.1870210
736 19.455900 15.886700 33.833300 3.8904480 2.9744560 9.8010860
737 31.155300 17.843200 40.772400 6.7544560 4.4885360 14.492190
738 49.729900 76.153400 83.212800 37.833080 45.887810 74.483020
739 58.972600 78.272800 91.951200 47.442270 52.150810 93.493060
740 77.551300 15.413200 34.163600 28.524400 14.320540 10.243780
741 79.637900 25.633900 52.752900 33.856830 18.177730 27.175130
742 53.623100 8.6761000 35.087000 13.477330 6.6760810 11.325760
743 55.344100 21.258200 36.695500 15.254490 9.0043680 12.113490
744 54.812600 47.234700 52.050400 21.427940 19.988910 25.608210
745 61.743300 47.544900 58.290900 26.135240 22.268140 32.660440
746 75.258400 54.891600 63.602300 37.875890 31.406300 39.586730
747 90.698600 73.285500 81.915600 63.494280 56.497680 70.633840
748 43.316100 8.0666000 10.579200 6.9914110 3.7905930 1.6602850
749 50.104100 22.815900 10.569500 10.044520 7.2045360 1.9671020
750 62.279000 31.575800 10.485900 16.618230 12.507010 2.1868260
751 72.174000 34.515100 19.355600 22.578580 16.514910 4.9649440
752 78.948400 38.983100 51.803100 34.530760 22.607780 25.329870
753 18.531200 0.0000000 10.462300 1.5772650 0.8153870 1.6353040
754 33.372100 0.0000000 34.989200 6.0760080 2.9282420 10.880160
755 41.342900 12.657000 43.243100 9.6226720 5.1002770 17.098170
756 47.357600 19.684700 78.827600 21.163350 11.210070 62.493330
757 88.446300 20.927400 87.890300 50.982200 24.913680 85.225490
758 55.154900 15.379300 7.2038000 11.522210 6.9023510 1.4084650
759 57.679300 15.967400 17.290400 13.401310 7.7715030 3.2518510
760 62.458900 25.928500 17.531800 16.088880 10.906970 3.7992470
761 75.975400 41.097900 14.279700 25.861170 20.057650 3.7917150
762 74.845700 60.034200 13.060200 31.300480 31.594100 4.8722630
763 74.406600 68.361100 21.150600 35.386370 39.817550 6.1767660
764 74.505400 70.476400 79.329600 47.529790 46.906630 64.408990
765 76.176600 75.206200 92.116200 55.968820 54.393120 91.565670
766 15.518400 23.501400 34.587600 4.1716260 4.2166170 10.203900
767 28.281000 28.151500 38.946000 7.0156680 6.6680320 12.994490
768 29.848900 40.560400 50.059600 11.358920 12.352480 23.510780
769 28.139800 38.481300 100.00000 26.482180 18.217920 102.72130
770 50.028300 38.986500 100.00000 32.558960 21.789770 101.94440
771 70.337900 40.216900 79.716400 35.746330 23.684900 65.280970
772 89.403700 46.298200 83.541200 53.945710 34.117630 75.110150
773 100.00000 74.313600 86.873800 75.240910 62.306320 80.129450
774 63.611400 60.916800 43.058100 27.625260 30.445350 17.503290
775 63.959900 70.728500 50.136600 32.866890 40.537070 24.582050
776 83.309600 86.562900 51.353800 53.381150 65.002900 26.967550
777 91.664900 86.500100 58.445700 63.573130 69.567550 34.267780
778 88.697900 13.182100 11.659100 35.447500 17.973510 1.9782270
779 89.708200 33.632000 13.140400 37.111230 22.784970 2.9738590
780 88.867800 44.887600 27.926000 37.509620 27.651200 9.2158660
781 90.821000 48.793600 55.404000 47.428810 33.335260 29.421500
782 46.130000 9.4984000 24.988600 9.2492070 4.6408990 5.7981170
783 61.305800 10.863300 26.583800 16.526670 8.3314530 6.4574570
784 82.749500 20.310000 28.750500 30.877860 16.374270 7.6098530
785 65.872100 78.034000 0.0000000 32.529570 47.352200 7.4690780
786 75.758800 89.442700 30.777800 45.231280 64.564000 11.717230
787 87.086300 89.720100 41.588800 56.488400 70.180540 18.311170
788 39.918100 54.402500 82.891500 26.678560 25.456730 71.014530
789 55.042700 55.365300 83.257600 32.562820 28.996420 71.225720
790 76.394700 91.008800 87.821100 61.714320 72.684610 82.458740
791 96.994500 96.994500 96.994500 88.093860 92.587470 104.41510
792 11.253600 28.340600 10.046600 2.5607330 4.6952230 1.4641430
793 21.129800 33.545900 20.361800 4.7381660 7.2340160 3.9487570
794 25.695900 34.451000 27.773900 6.2997680 8.2152180 7.0157230
795 69.748900 30.547000 29.876700 21.966850 14.994400 8.6204250
796 79.075800 36.513500 29.315100 28.572430 20.144680 9.0739360
797 78.390800 44.360900 43.721000 32.504940 24.747700 17.941700
798 91.912700 75.110300 46.223600 55.413720 54.865940 21.825600
799 13.742700 17.571800 45.537600 5.0440840 3.5088380 18.166760
800 12.775200 39.495100 72.041400 14.712540 12.936610 52.193250
801 39.158400 41.190200 73.861500 19.772200 16.236290 54.054130
802 16.336300 0.0000000 25.550300 2.1917660 1.0581770 5.4647950
803 49.628400 59.598900 24.575200 18.239130 25.860490 6.7113210
804 32.813200 82.940600 0.0000000 25.427410 48.724590 8.1607920
805 46.320400 90.228800 10.921200 30.591970 58.654890 9.6944610
806 52.731700 89.753400 32.347600 32.287170 58.967960 12.761160
807 0.0000000 24.669900 42.810900 5.0402550 4.8348510 16.547150
808 52.547300 31.123200 43.735000 15.959340 11.485470 17.794130
809 64.144900 33.509600 51.829400 23.644880 15.640820 25.830180
810 68.298100 41.446400 51.606900 27.916230 20.725740 25.431960
811 76.668800 71.672700 51.158600 42.284410 45.698920 25.765570
812 82.831700 74.162400 68.246900 51.894670 51.813470 46.581170
813 83.209600 82.684800 72.262700 57.534770 62.395240 53.499570
814 34.550000 75.827500 35.398400 21.692330 39.569680 13.140360
815 72.228300 90.077900 45.525600 45.424200 64.994560 22.024400
816 86.252000 90.266200 66.618500 61.907750 72.470570 45.410210
817 7.5558000 16.043100 9.5691000 1.0757690 1.6986620 1.2225630
818 23.874500 24.503600 11.084300 3.6340470 4.3197510 1.6138170
819 34.771300 31.461500 24.751800 7.5217160 7.8348020 5.5455350
820 36.654600 42.566500 35.756100 10.942790 13.392500 11.315370
821 35.554500 67.126800 40.606400 17.741910 30.710090 15.986280
822 45.646400 77.212000 57.699200 28.340730 43.473190 32.089060
823 57.881400 89.561400 61.384300 40.921190 61.923080 38.188770
824 46.840200 81.477100 49.429100 29.181440 48.512660 24.444480
825 94.212400 86.265900 71.468900 69.121950 71.587960 52.264120
END_DATA
