CTI3   

DESCRIPTOR "Argyll Calibration Target chart information 3"
ORIGINATOR "Argyll dispread"
CREATED "Tue May 26 10:39:49 2020"
DEVICE_CLASS "DISPLAY"
SINGLE_DIM_STEPS "25"
COMP_GREY_STEPS "73"
DARK_REGION_EMPHASIS "1.6"
COLOR_REP "RGB_XYZ"
TARGET_INSTRUMENT "X-Rite i1 DisplayPro, ColorMunki Display"
DISPLAY_TYPE_REFRESH "NO"
INSTRUMENT_TYPE_SPECTRAL "NO"
LUMINANCE_XYZ_CDM2 "317.515499 334.057455 370.547733"
NORMALIZED_TO_Y_100 "YES"
VIDEO_LUT_CALIBRATION_POSSIBLE "YES"

BEGIN_ARGYLL_COLPROF_ARGS
-v -qh -aX -bn -C "No copyright. Created with DisplayCAL 3.8.9.3 and ArgyllCMS 2.1.2" -M "LP123WQ112604" -A "LG Display"
END_ARGYLL_COLPROF_ARGS

OBSERVER "1931_2"
USE_BLACK_POINT_COMPENSATION "NO"
BLACK_POINT_CORRECTION "0.0"
HIRES_B2A "YES"
HIRES_B2A_SIZE "-1"
SMOOTH_B2A "YES"
PATCH_SEQUENCE "OPTIMIZE_DISPLAY_RESPONSE_DELAY"

NUMBER_OF_FIELDS 7
BEGIN_DATA_FORMAT
SAMPLE_ID RGB_R RGB_G RGB_B XYZ_X XYZ_Y XYZ_Z
END_DATA_FORMAT

NUMBER_OF_SETS 825
BEGIN_DATA
1 100.00000 100.00000 100.00000 95.048170 100.00000 110.92340
2 1.9608000 1.9608000 1.9608000 0.1411130 0.1452300 0.1955220
3 3.9216000 3.9216000 3.9216000 0.3483940 0.3572110 0.4469640
4 5.8824000 5.8824000 5.8824000 0.5267540 0.5511660 0.6637200
5 9.8039000 9.8039000 9.8039000 1.0467400 1.1050800 1.2656460
6 13.726000 13.726000 13.726000 1.6839740 1.7942470 1.9399390
7 17.647000 17.647000 17.647000 2.5444090 2.6879810 2.9566570
8 21.569000 21.569000 21.569000 3.6174880 3.7861650 4.3367140
9 25.490000 25.490000 25.490000 4.9813070 5.2302550 5.8080100
10 29.412000 29.412000 29.412000 6.5654530 6.8698340 7.7621700
11 33.333000 33.333000 33.333000 8.4401430 8.8661760 9.9684580
12 37.255000 37.255000 37.255000 10.759740 11.298070 12.373000
13 41.176000 41.176000 41.176000 13.266490 13.905740 15.524330
14 45.098000 45.098000 45.098000 16.089600 16.927020 18.519910
15 49.020000 49.020000 49.020000 19.194470 20.112100 22.418210
16 52.941000 52.941000 52.941000 22.837850 23.925380 26.055680
17 56.863000 56.863000 56.863000 26.948240 28.182080 31.129990
18 60.784000 60.784000 60.784000 30.911730 32.616030 36.209350
19 64.706000 64.706000 64.706000 35.550530 37.265590 41.018660
20 68.627000 68.627000 68.627000 40.776400 42.722330 47.535610
21 72.549000 72.549000 72.549000 46.085910 48.375330 54.480140
22 76.471000 76.471000 76.471000 51.645610 54.397370 60.312610
23 80.392000 80.392000 80.392000 58.002330 60.993990 67.208330
24 84.314000 84.314000 84.314000 64.791710 67.901800 75.220110
25 88.235000 88.235000 88.235000 71.726600 75.557120 82.765580
26 92.157000 92.157000 92.157000 79.684580 83.922550 92.383440
27 96.078000 96.078000 96.078000 87.853690 92.074520 102.57920
28 0.0000000 71.125200 59.959200 23.929930 37.045520 35.473280
29 34.765600 72.909400 66.047000 26.387690 39.768810 42.452640
30 0.0000000 58.286200 67.974200 20.107510 25.306000 47.791430
31 35.853900 67.939200 74.200600 26.956130 35.112340 57.714960
32 100.00000 75.471800 77.457300 71.905600 63.003560 62.132330
33 26.505800 9.3803000 0.0000000 2.6143600 1.8855860 0.2970190
34 42.729000 13.015600 0.0000000 6.6861860 4.1551760 0.4569470
35 51.733200 22.972000 0.0000000 12.257870 8.2204530 0.9081710
36 58.682700 30.066000 26.075200 16.241230 12.108320 6.7341400
37 6.0976000 0.0000000 0.0000000 0.3756690 0.2315210 0.1523240
38 8.3333000 0.0000000 0.0000000 0.4582000 0.2732880 0.1543280
39 10.683800 0.0000000 0.0000000 0.6014870 0.3459340 0.1575380
40 13.157900 0.0000000 0.0000000 0.7646650 0.4285560 0.1617980
41 15.765800 0.0000000 0.0000000 0.9181430 0.5060970 0.1655560
42 18.518500 0.0000000 0.0000000 1.1221160 0.6094160 0.1718570
43 21.428600 0.0000000 0.0000000 1.4810800 0.7911850 0.1806270
44 24.509800 0.0000000 0.0000000 1.8564840 0.9814870 0.1898600
45 27.777800 0.0000000 0.0000000 2.4823050 1.2984570 0.2072670
46 31.250000 0.0000000 0.0000000 3.3386850 1.7322120 0.2314860
47 34.946200 0.0000000 0.0000000 4.4192660 2.2797180 0.2621940
48 38.888900 0.0000000 0.0000000 5.8828530 3.0223230 0.3045610
49 43.103500 0.0000000 0.0000000 7.4606530 3.8206510 0.3500280
50 47.619100 0.0000000 0.0000000 9.1999760 4.7038450 0.4143470
51 52.469100 0.0000000 0.0000000 11.454040 5.8434260 0.4994700
52 57.692300 0.0000000 0.0000000 13.959270 7.1132800 0.5816200
53 63.333300 0.0000000 0.0000000 16.726590 8.5164530 0.7296720
54 69.444400 0.0000000 0.0000000 20.959040 10.659360 0.9353310
55 76.087000 0.0000000 0.0000000 24.909960 12.662570 1.1272930
56 83.333300 0.0000000 0.0000000 30.248570 15.373130 1.3595120
57 88.102200 31.245200 22.908500 36.215240 22.152420 5.9532200
58 100.00000 40.977800 31.918100 48.588160 31.446820 10.733230
59 100.00000 57.719200 37.577800 53.762850 42.333810 16.393690
60 100.00000 72.312100 46.921100 61.601920 55.576490 24.561370
61 27.331800 25.808100 0.0000000 4.3413750 5.1440060 0.7646500
62 44.310200 30.254500 0.0000000 9.9394820 8.7873730 1.1994090
63 0.0000000 0.0000000 0.0000000 0.0814180 0.0824509 0.1453710
64 3.9683000 0.0000000 0.0000000 0.2429280 0.1642230 0.1493090
65 1.9380000 0.0000000 0.0000000 0.1346880 0.1095300 0.1466270
66 0.0000000 6.0976000 0.0000000 0.3024540 0.5135430 0.2020120
67 0.0000000 13.157900 0.0000000 0.7217070 1.3262260 0.3128000
68 0.0000000 24.509800 0.0000000 1.8808130 3.5731730 0.6311610
69 0.0000000 27.777800 0.0000000 2.4812090 4.7034470 0.8020850
70 0.0000000 31.250000 0.0000000 3.1840790 6.0717480 1.0145020
71 0.0000000 34.946200 0.0000000 3.8443670 7.3882440 1.2322700
72 0.0000000 38.888900 0.0000000 4.8834480 9.3346700 1.5825250
73 0.0000000 43.103500 0.0000000 6.0975140 11.661110 2.0125510
74 0.0000000 47.619100 0.0000000 7.3741100 14.135150 2.4479380
75 0.0000000 52.469100 0.0000000 9.3213390 17.893260 3.1089280
76 0.0000000 57.692300 0.0000000 11.422450 21.882010 3.8340890
77 0.0000000 63.333300 0.0000000 13.973290 26.797240 4.6536680
78 0.0000000 69.444400 0.0000000 17.375930 33.344000 5.7670970
79 0.0000000 76.087000 0.0000000 21.413870 41.111290 7.0641390
80 0.0000000 83.333300 0.0000000 26.120440 50.204160 8.4959460
81 61.702800 100.00000 0.0000000 40.924960 75.845180 12.542180
82 80.362400 100.00000 0.0000000 53.219170 81.571530 12.973140
83 0.0000000 0.0000000 1.9380000 0.0922899 0.0871358 0.2019860
84 0.0000000 0.0000000 3.9683000 0.1410350 0.1073010 0.4434870
85 0.0000000 0.0000000 6.0976000 0.2001840 0.1316870 0.7384910
86 0.0000000 0.0000000 8.3333000 0.2485100 0.1517300 0.9799700
87 0.0000000 0.0000000 10.683800 0.3314270 0.1860950 1.3980060
88 0.0000000 0.0000000 13.157900 0.4320420 0.2276730 1.8973440
89 0.0000000 0.0000000 15.765800 0.5292470 0.2679310 2.3864800
90 0.0000000 0.0000000 18.518500 0.7435480 0.3565210 3.4532420
91 0.0000000 0.0000000 21.428600 1.0376450 0.4790000 4.9244530
92 0.0000000 0.0000000 24.509800 1.2462340 0.5652100 5.9625930
93 0.0000000 0.0000000 27.777800 1.5973740 0.7105100 7.7168300
94 0.0000000 0.0000000 31.250000 1.9320660 0.8489260 9.3888940
95 0.0000000 0.0000000 34.946200 2.4262850 1.0559140 11.863760
96 0.0000000 0.0000000 38.888900 2.8954550 1.2499990 14.199200
97 0.0000000 0.0000000 43.103500 3.5860600 1.5360520 17.649320
98 0.0000000 0.0000000 47.619100 4.3428570 1.8549920 21.417990
99 0.0000000 0.0000000 52.469100 5.3319290 2.2627190 26.354260
100 0.0000000 0.0000000 57.692300 6.5664290 2.7789660 32.511460
101 0.0000000 0.0000000 63.333300 7.9629810 3.3663110 39.464900
102 0.0000000 0.0000000 69.444400 10.042510 4.2428430 49.815470
103 0.0000000 0.0000000 76.087000 12.201190 5.1580860 60.537680
104 0.0000000 0.0000000 83.333300 14.697890 6.2360810 72.958830
105 0.0000000 19.551200 79.899100 14.057920 7.5477740 64.861900
106 17.473100 41.948800 91.497000 22.853530 17.393190 89.638340
107 27.627400 51.036700 100.00000 30.002870 25.627860 101.86710
108 53.417100 64.257800 100.00000 42.634680 40.046660 103.46220
109 70.036100 79.151300 100.00000 58.083500 58.910130 106.59130
110 2.6042000 2.6042000 2.6042000 0.2052880 0.2258750 0.2777650
111 3.2808000 3.2808000 3.2808000 0.2521430 0.2860230 0.3404100
112 3.9683000 3.9683000 3.9683000 0.3473930 0.3561650 0.4470520
113 4.6667000 4.6667000 4.6667000 0.4518980 0.4758080 0.5539800
114 5.3763000 5.3763000 5.3763000 0.5145240 0.5252110 0.5912220
115 6.0976000 6.0976000 6.0976000 0.5798220 0.5962300 0.7144960
116 6.8306000 6.8306000 6.8306000 0.6449720 0.6769720 0.8035500
117 7.5758000 7.5758000 7.5758000 0.7331460 0.7682590 0.9101480
118 8.3333000 8.3333000 8.3333000 0.8174740 0.8670130 0.9670910
119 9.1036000 9.1036000 9.1036000 0.9748200 1.0361100 1.1463310
120 9.8870000 9.8870000 9.8870000 1.0387730 1.0965080 1.2616940
121 10.683800 10.683800 10.683800 1.2167420 1.2880920 1.4681650
122 11.494200 11.494200 11.494200 1.2778720 1.3512010 1.5369370
123 12.318800 12.318800 12.318800 1.4299380 1.4989580 1.6919470
124 13.157900 13.157900 13.157900 1.6387440 1.7217630 1.9233990
125 14.011800 14.011800 14.011800 1.7437940 1.8602590 2.0226390
126 14.881000 14.881000 14.881000 1.8888990 2.0164810 2.1878820
127 15.765800 15.765800 15.765800 2.0633690 2.1441670 2.4433590
128 16.666700 16.666700 16.666700 2.2598290 2.3835090 2.6403820
129 17.584100 17.584100 17.584100 2.5193600 2.6601750 2.9410020
130 18.518500 18.518500 18.518500 2.6502540 2.7731800 3.2348940
131 19.470400 19.470400 19.470400 2.9862750 3.1576520 3.4783690
132 20.440200 20.440200 20.440200 3.2898620 3.4801190 3.8310360
133 21.428600 21.428600 21.428600 3.5907230 3.7455700 4.3064970
134 22.435900 22.435900 22.435900 3.8346000 4.0652730 4.4643400
135 23.462800 23.462800 23.462800 4.1593070 4.3600930 4.9925320
136 24.509800 24.509800 24.509800 4.4563750 4.7188040 5.2866780
137 25.577600 25.577600 25.577600 4.9297930 5.1781500 5.7718370
138 26.666700 26.666700 26.666700 5.3506200 5.6192610 6.2637790
139 27.777800 27.777800 27.777800 5.8401830 6.1250440 6.9529820
140 28.911600 28.911600 28.911600 6.2737590 6.5961680 7.3416430
141 30.068700 30.068700 30.068700 6.8246280 7.1543880 8.1125440
142 31.250000 31.250000 31.250000 7.4502530 7.8870140 8.5802750
143 32.456100 32.456100 32.456100 7.9482050 8.3307300 9.4307640
144 33.687900 33.687900 33.687900 8.5413330 8.9615270 10.154050
145 34.946200 34.946200 34.946200 9.1890290 9.6445320 10.927700
146 36.231900 36.231900 36.231900 9.8206780 10.356580 11.464200
147 37.545800 37.545800 37.545800 10.915300 11.428020 12.851620
148 38.888900 38.888900 38.888900 11.438290 11.985300 13.492900
149 40.262200 40.262200 40.262200 12.659860 13.360810 14.778050
150 41.666700 41.666700 41.666700 13.243050 13.797840 15.416380
151 43.103500 43.103500 43.103500 14.447130 15.262260 16.862760
152 44.573600 44.573600 44.573600 15.563250 16.360830 17.984770
153 46.078400 46.078400 46.078400 16.440510 17.363340 19.214230
154 47.619100 47.619100 47.619100 17.796150 18.633080 20.920830
155 49.196800 49.196800 49.196800 18.987560 19.882870 22.310310
156 50.813000 50.813000 50.813000 20.860530 22.015840 24.345070
157 52.469100 52.469100 52.469100 22.119360 23.139250 25.359510
158 54.166700 54.166700 54.166700 23.624270 24.946370 27.552250
159 55.907200 55.907200 55.907200 25.844630 27.167070 29.903100
160 57.692300 57.692300 57.692300 27.216140 28.737880 31.721260
161 59.523800 59.523800 59.523800 29.362200 30.727450 34.175060
162 61.403500 61.403500 61.403500 31.636480 33.443930 36.853070
163 63.333300 63.333300 63.333300 33.169180 34.870750 38.772870
164 65.315300 65.315300 65.315300 35.991530 37.621820 42.294820
165 67.351600 67.351600 67.351600 39.257010 41.408680 45.352060
166 69.444400 69.444400 69.444400 41.757530 43.733970 48.923340
167 71.596200 71.596200 71.596200 44.885040 46.788740 52.765840
168 73.809500 73.809500 73.809500 47.531540 50.078190 55.343470
169 76.087000 76.087000 76.087000 50.990400 53.414340 60.196490
170 78.431400 78.431400 78.431400 54.585450 57.324290 63.730070
171 80.845800 80.845800 80.845800 58.407350 61.399370 68.113940
172 83.333300 83.333300 83.333300 62.310640 65.536360 72.551060
173 85.897400 85.897400 85.897400 66.858750 70.544080 78.111840
174 88.541700 88.541700 88.541700 71.861170 75.395400 83.717290
175 91.269800 91.269800 91.269800 77.941160 81.832330 90.666640
176 0.0000000 48.267100 30.031400 8.7872920 14.941410 8.8889000
177 0.0000000 56.678700 54.419300 15.748420 22.657740 28.564020
178 0.0000000 70.195700 69.963100 26.507850 37.077240 51.433990
179 82.433100 24.303200 0.0000000 31.582070 17.146540 1.6602770
180 100.00000 23.686200 19.325700 43.851570 23.770310 4.6049700
181 80.243200 0.0000000 16.907000 29.532470 14.964990 3.5918640
182 78.964800 30.145500 43.362500 31.984390 18.933000 17.510210
183 79.964500 49.050000 57.050400 38.781420 29.324860 31.164130
184 56.210700 38.103600 34.827500 17.759140 14.926850 11.290280
185 74.227200 58.410800 36.181500 33.439820 32.531410 13.277800
186 90.712100 62.184000 68.907300 56.105860 45.026300 48.397860
187 100.00000 63.205700 100.00000 73.067540 55.442010 105.33340
188 65.023100 0.0000000 100.00000 35.534500 17.330960 100.31900
189 71.236600 25.429300 100.00000 40.980820 23.362210 100.99950
190 84.885400 45.509700 100.00000 53.566990 36.300790 102.35560
191 100.00000 47.164700 100.00000 67.329430 44.257490 103.87170
192 0.0000000 9.1476000 16.741900 0.9238130 0.9797420 2.6566550
193 0.0000000 20.684800 21.296000 2.1482980 2.9471210 4.2462900
194 0.0000000 21.617600 30.070000 2.9920030 3.3618170 8.2536870
195 0.0000000 73.870200 84.128800 33.503570 42.523570 78.755630
196 23.648400 80.702700 100.00000 43.139250 51.631710 106.43030
197 49.159800 82.361000 100.00000 50.777810 56.854350 106.80330
198 0.0000000 17.770100 100.00000 21.194530 10.976340 99.104890
199 0.0000000 29.020000 100.00000 22.692700 13.891130 99.511550
200 26.465500 70.821900 100.00000 38.338510 41.425470 104.12490
201 51.348700 74.454100 100.00000 46.943940 48.928590 104.79320
202 22.710800 8.9048000 17.360700 2.6572260 1.7628970 2.8766670
203 47.424600 25.411400 26.206400 10.726850 8.0985320 6.3674840
204 77.603100 47.288700 29.647800 30.239740 24.926210 10.073350
205 91.561800 65.352800 34.099200 49.067250 44.399400 13.407900
206 100.00000 100.00000 44.749900 75.999490 91.567510 22.278370
207 39.207100 55.835000 11.360500 12.892870 21.317410 3.6167530
208 58.951900 55.384400 12.698200 21.231010 24.400200 3.8543840
209 100.00000 84.532300 0.0000000 65.643790 67.414730 9.5302870
210 100.00000 84.248100 25.135800 65.843570 67.519790 10.579860
211 0.0000000 91.269800 0.0000000 32.241640 62.033940 10.393930
212 0.0000000 100.00000 0.0000000 38.742340 74.568000 12.386410
213 36.855200 100.00000 0.0000000 38.742340 74.568000 12.386410
214 83.186200 100.00000 80.260300 69.814170 87.557190 68.610350
215 89.260000 100.00000 90.133500 79.854070 92.339420 87.859720
216 100.00000 100.00000 88.617400 89.034970 96.568430 85.432790
217 15.190500 7.5882000 38.291100 3.5735480 1.9206010 12.502940
218 23.077500 33.632000 49.342800 8.8850090 8.9038380 22.340750
219 49.787300 38.228500 48.632000 16.804950 14.092140 21.912700
220 49.907500 55.573000 48.960500 21.105050 24.859310 22.534470
221 80.215300 66.918400 58.355700 45.041830 43.785810 33.157420
222 100.00000 76.546000 66.225900 68.030770 62.311510 45.219240
223 92.527400 16.490400 39.316600 43.626120 21.941350 14.446170
224 100.00000 24.789700 48.618600 47.792950 26.205430 22.176380
225 100.00000 42.684100 55.880900 52.745770 34.118630 29.591650
226 0.0000000 1.9380000 0.0000000 0.1106410 0.1398270 0.1534660
227 14.283200 7.1562000 0.0000000 0.9929600 0.8846620 0.2246650
228 26.162700 43.003300 34.572900 8.5897480 12.524750 10.711070
229 39.085500 52.607900 47.569000 15.865810 20.281870 20.815400
230 45.100600 63.422800 66.808500 25.731550 31.266780 44.430590
231 51.941700 63.004300 81.029600 33.240870 33.981230 68.242570
232 72.350100 68.125600 100.00000 53.909950 48.906670 104.44120
233 51.499300 8.4495000 49.567200 14.735480 7.0904180 23.616740
234 51.466800 27.273400 50.544800 16.300120 10.676290 24.141090
235 75.430700 37.596700 62.555400 34.654790 22.038390 39.795200
236 31.060100 44.281900 26.624900 9.0762550 13.409530 6.8794410
237 32.069900 45.608700 62.057200 15.719250 16.230830 37.372710
238 49.609700 76.405300 66.498100 32.491270 45.516270 43.757380
239 86.482000 78.235700 100.00000 68.450920 64.048190 107.03530
240 100.00000 88.836900 100.00000 86.568950 83.327050 109.18270
241 60.471200 0.0000000 59.528500 21.638860 10.364160 36.023590
242 68.085300 0.0000000 80.973800 32.803790 15.473260 69.344340
243 89.477200 0.0000000 86.257900 52.701180 25.414080 82.934510
244 100.00000 0.0000000 100.00000 60.945770 31.065640 101.21250
245 69.316300 0.0000000 34.991800 23.605260 11.797510 12.170380
246 84.199000 0.0000000 48.645100 37.367860 18.562750 23.759370
247 79.972300 0.0000000 58.807500 35.248000 17.282260 35.822540
248 100.00000 0.0000000 66.167500 50.279140 25.114030 42.102410
249 62.156600 35.843900 0.0000000 18.940560 14.368090 1.8590030
250 100.00000 70.216300 0.0000000 57.122060 50.760370 6.8210350
251 100.00000 72.238600 27.600900 58.995150 53.531120 9.9051830
252 31.243300 67.131100 0.0000000 16.186610 31.039180 5.4113590
253 54.196600 83.525900 0.0000000 28.954800 51.455560 8.6393970
254 100.00000 100.00000 0.0000000 72.964450 90.146680 13.576670
255 100.00000 100.00000 24.860300 73.357250 90.345480 13.575450
256 0.0000000 52.895400 81.485700 22.182230 22.043160 70.976890
257 0.0000000 61.586500 100.00000 32.315150 32.250210 103.02220
258 29.835800 61.415800 100.00000 34.299380 33.265680 103.06930
259 11.328800 20.176500 38.822100 4.0991930 3.5839360 13.323780
260 27.837200 20.377700 50.523500 8.2175010 5.5592520 23.244220
261 62.126800 51.018800 69.656100 30.761360 26.285470 49.484160
262 73.648800 50.667600 78.189900 40.572810 30.540680 63.254400
263 0.6361000 0.6361000 0.6361000 0.0850721 0.0863627 0.1497950
264 1.2821000 1.2821000 1.2821000 0.0947340 0.0955408 0.1631600
265 1.9380000 1.9380000 1.9380000 0.1405320 0.1446700 0.1960510
266 0.0000000 10.776900 10.786800 0.7940490 1.0651830 1.5760170
267 15.775400 12.595400 24.504100 2.4146700 1.9270190 5.2184550
268 30.399900 100.00000 66.081000 44.984380 76.556250 45.445290
269 58.705000 100.00000 78.944500 53.852290 80.706340 64.485070
270 69.124200 100.00000 89.340400 63.992210 85.512730 84.158680
271 0.0000000 61.285000 45.115600 15.800280 25.951470 18.794610
272 0.0000000 82.445000 54.698400 29.317200 49.854630 29.690270
273 0.0000000 85.804800 72.972900 37.164900 57.643980 54.865890
274 0.0000000 100.00000 100.00000 56.058830 78.154960 110.10250
275 27.756700 100.00000 100.00000 56.058830 78.154960 110.10250
276 0.0000000 86.085500 100.00000 45.230880 57.069220 107.30080
277 22.923800 90.499700 100.00000 49.218740 63.814150 108.17170
278 50.271800 100.00000 100.00000 61.042440 80.682410 110.24650
279 0.0000000 14.927700 57.643000 6.8942870 3.9653360 30.882070
280 0.0000000 28.562900 74.157500 13.179320 8.9371320 54.962920
281 23.271200 11.710900 73.608700 12.853780 6.1358150 53.800050
282 53.633900 21.738400 100.00000 31.277120 17.246820 100.68880
283 90.241300 100.00000 100.00000 85.394060 94.210790 111.04310
284 100.00000 100.00000 100.00000 94.424110 99.271370 111.39590
285 0.0000000 35.989700 16.235800 4.3627290 7.8158130 3.1514390
286 54.847700 40.440600 29.317400 16.598600 15.276780 8.1632410
287 68.167700 41.276000 33.493000 23.731470 19.157670 11.187570
288 100.00000 47.673200 46.730700 51.947310 35.949430 21.399900
289 100.00000 26.631800 0.0000000 43.251200 23.500630 2.3030710
290 100.00000 43.362500 0.0000000 46.973170 30.636930 3.5568590
291 100.00000 57.672900 0.0000000 51.358330 39.378370 4.9986870
292 100.00000 60.537600 22.359600 53.157360 42.309690 7.2096320
293 100.00000 63.392300 53.444200 58.495640 48.169870 29.458580
294 11.133500 0.0000000 12.876400 0.9795830 0.5059690 1.8387140
295 25.026700 0.0000000 20.611700 3.1434560 1.5567140 4.3240240
296 25.399800 43.245000 81.171700 19.806850 16.633670 67.772760
297 40.479800 50.723600 89.613800 28.493660 24.221810 84.964920
298 77.542400 36.450400 0.0000000 29.808690 19.636680 2.3173060
299 82.039900 49.722800 0.0000000 36.290430 28.263220 3.7306750
300 0.0000000 100.00000 30.041300 38.733790 73.924180 14.340540
301 0.0000000 100.00000 53.127400 42.040120 75.295480 30.794890
302 0.0000000 100.00000 71.907100 46.799680 77.821350 52.777840
303 31.849400 100.00000 79.120700 48.955940 78.710220 63.605860
304 0.0000000 84.954000 85.846200 41.090900 57.222300 80.790000
305 0.0000000 100.00000 87.535100 52.162240 80.057360 79.635970
306 39.530900 100.00000 90.053800 53.357420 80.565290 85.634110
307 0.0000000 32.626200 24.909200 4.2580110 6.7058970 5.8798220
308 0.0000000 32.077400 35.196900 5.1264290 6.7247690 11.296430
309 0.0000000 44.749600 50.694500 10.611370 13.644680 24.318700
310 0.0000000 35.435200 49.432000 7.9717830 8.7528510 22.721170
311 0.0000000 36.677200 64.752700 11.971920 10.973320 41.095120
312 0.0000000 48.269700 66.128000 15.451870 16.932720 44.561310
313 0.0000000 3.9683000 0.0000000 0.1897840 0.2936710 0.1740120
314 0.0000000 15.765800 0.0000000 0.8660420 1.6090560 0.3527060
315 13.529500 21.170100 8.6250000 1.9255960 2.9377180 1.1403020
316 67.700700 28.024600 35.713500 22.751990 14.253480 11.588230
317 76.212500 33.714000 72.193200 37.088560 21.731940 55.007700
318 56.691000 23.959600 62.498000 21.121140 11.982530 38.875410
319 60.479300 28.308200 76.077000 27.237680 15.802300 60.015170
320 27.633400 0.0000000 60.504100 9.6743030 4.3075090 34.998090
321 39.368500 22.481000 63.904700 14.031930 8.5194040 38.687160
322 0.0000000 11.955600 27.595900 1.8660500 1.5811420 6.7159810
323 0.0000000 11.484600 38.677200 3.0882490 2.0136480 13.041930
324 0.0000000 85.625600 39.422800 29.052400 53.148890 17.799600
325 52.596100 100.00000 26.175400 38.413650 73.752710 12.853740
326 70.729100 100.00000 29.375600 47.137470 78.185810 13.411420
327 0.0000000 18.518500 0.0000000 1.1420000 2.1460200 0.4201570
328 0.0000000 21.428600 0.0000000 1.5130830 2.8589060 0.5324280
329 15.177900 22.247500 0.0000000 2.0971680 3.2243610 0.5582580
330 34.466000 29.978400 58.721300 12.415080 9.4118870 32.135380
331 48.372100 40.455300 63.836300 19.929660 16.529870 38.973190
332 68.345800 40.288600 100.00000 41.801620 27.745390 101.81330
333 84.885200 62.016800 100.00000 59.129370 47.478480 104.98820
334 100.00000 77.434000 100.00000 79.430110 69.064000 107.36330
335 31.137500 0.0000000 13.276800 3.9932270 2.0265360 2.2277190
336 36.063100 9.4971000 13.856100 5.0573580 2.9669610 2.0818210
337 46.189800 70.464800 33.050800 21.681690 35.569140 11.565830
338 60.552900 82.842700 33.129400 32.960710 51.962520 12.735500
339 68.628800 86.673700 56.593400 44.501270 60.745830 32.676990
340 86.564500 100.00000 66.307600 67.024320 86.989450 46.638840
341 100.00000 100.00000 78.308600 84.846780 94.647750 65.897790
342 22.123800 0.0000000 42.147700 4.9518200 2.2616860 15.839310
343 43.052500 0.0000000 53.100200 11.846370 5.5726660 25.962380
344 72.047100 70.472600 61.404700 41.181040 44.252110 36.826410
345 87.063300 74.681500 88.144100 62.974200 57.289790 83.177480
346 44.275500 0.0000000 14.379500 8.2429950 4.1757960 2.5839540
347 43.634600 22.336100 39.518000 10.790640 7.1299450 14.421650
348 41.114300 0.0000000 26.233200 7.7135530 3.8281530 6.7755260
349 54.027500 0.0000000 26.155400 13.157820 6.5902960 6.9171090
350 65.178800 16.191200 37.306700 20.485020 10.517950 12.929340
351 50.147900 0.0000000 39.105300 12.665380 6.1944880 14.753320
352 65.258400 0.0000000 44.505000 21.611230 10.643840 19.665170
353 100.00000 23.684100 64.447800 50.886970 27.271320 39.796620
354 100.00000 41.912100 67.224000 54.964450 34.762480 43.389670
355 100.00000 0.0000000 34.564100 44.150140 22.260630 12.214100
356 100.00000 0.0000000 49.509400 46.543670 23.394930 23.574960
357 0.0000000 8.3333000 0.0000000 0.3918080 0.6853980 0.2277020
358 0.0000000 10.683800 0.0000000 0.5502800 0.9942070 0.2687420
359 11.006500 12.241200 0.0000000 1.0465080 1.3598370 0.3013390
360 21.445000 15.750200 0.0000000 2.2159980 2.1995620 0.3741230
361 28.645300 43.052800 0.0000000 6.8865010 11.737510 2.0288530
362 37.178300 56.148400 73.965900 23.519110 25.092330 56.352360
363 0.0000000 0.0000000 91.269800 18.206980 7.7419560 90.316340
364 0.0000000 0.0000000 100.00000 20.419290 9.3889610 99.085460
365 0.0000000 39.057100 100.00000 24.787970 17.912450 100.24980
366 0.0000000 50.833100 100.00000 28.183170 24.509320 101.12540
367 0.0000000 73.145200 100.00000 37.553630 42.373070 104.52380
368 22.640300 70.148400 13.527700 17.705850 33.975460 5.8751980
369 26.638800 86.986300 17.794700 28.574360 54.929070 9.2318110
370 51.227100 100.00000 43.838800 40.335830 74.514580 22.513480
371 69.374800 100.00000 51.750600 50.667120 78.956470 29.692650
372 29.806500 21.786600 10.086800 4.4037400 4.2506270 1.5263260
373 29.394800 32.586500 20.946300 6.0356000 7.4130910 4.1983670
374 27.996400 55.593700 29.219800 11.423550 20.360760 8.5998720
375 0.0000000 54.592700 20.305900 10.369320 19.300380 5.2905720
376 0.0000000 75.655500 22.253500 20.745530 39.613840 7.5814530
377 45.630100 62.626800 0.0000000 16.791670 27.286390 4.6487740
378 64.667200 62.484000 0.0000000 26.793730 31.708650 4.9830110
379 73.990700 77.941700 32.212200 39.770760 50.519010 11.509320
380 66.896000 76.512200 76.013100 44.698000 50.875920 60.174680
381 66.111500 100.00000 100.00000 68.137100 84.157700 110.54120
382 79.414200 100.00000 100.00000 77.052040 89.339860 110.84460
383 31.123400 0.0000000 80.014300 16.222370 7.1194740 64.827340
384 48.491300 0.0000000 100.00000 27.887800 13.255840 99.329530
385 83.082900 0.0000000 100.00000 46.717960 23.703690 100.93490
386 91.269800 0.0000000 0.0000000 37.250430 18.917200 1.7088650
387 100.00000 0.0000000 0.0000000 42.004140 21.336920 1.9209590
388 100.00000 0.0000000 21.425400 42.816710 21.656090 5.8580670
389 100.00000 26.794700 36.625000 45.928570 25.683690 12.945350
390 100.00000 41.247900 81.723300 59.453630 36.448640 66.476340
391 100.00000 58.372100 85.903900 66.234120 48.298110 74.684770
392 29.018700 11.585400 28.492000 4.6194450 2.8259560 7.2990950
393 45.859300 20.135500 28.509600 9.9016010 6.5186050 7.2649770
394 73.215900 0.0000000 24.687300 24.696640 12.456790 6.4065570
395 86.870900 0.0000000 36.471800 37.677250 18.911920 13.348560
396 100.00000 0.0000000 82.484100 55.121540 27.306830 67.637930
397 100.00000 24.351200 82.205900 56.357550 29.972160 67.193200
398 100.00000 27.159400 100.00000 62.837140 35.470860 102.01340
399 34.760800 81.368400 65.857200 31.206670 49.562560 42.412670
400 58.313200 87.036500 70.514300 42.769420 60.446950 50.916310
401 85.971200 90.022700 100.00000 76.230070 78.913290 109.22970
402 27.771000 0.0000000 100.00000 22.187310 10.178060 99.184310
403 31.496900 21.766000 100.00000 24.340880 13.549170 99.591210
404 49.157600 51.778500 100.00000 35.764990 29.139320 102.49770
405 68.170800 55.193400 100.00000 45.962720 36.590310 103.14540
406 46.423900 49.900200 0.0000000 13.668160 18.084340 2.9511100
407 82.007600 64.814800 0.0000000 40.925310 39.219960 5.6637550
408 83.412700 81.783800 0.0000000 48.198470 58.340770 8.8332620
409 16.709100 66.865400 46.041500 18.748010 31.583560 19.870560
410 27.532100 77.558400 49.819900 25.003810 42.735970 24.672450
411 36.299000 90.764600 52.981800 34.792740 61.249340 28.874500
412 52.563600 100.00000 63.219300 44.965350 75.802080 41.712680
413 71.187800 100.00000 70.073800 57.766400 82.095810 52.933030
414 17.367500 33.698500 0.0000000 3.5116920 6.7359030 1.1521320
415 34.968600 36.343400 0.0000000 7.2755710 9.4216640 1.5063250
416 52.863700 42.883800 0.0000000 15.525270 15.430000 2.2791690
417 67.860900 50.443300 0.0000000 25.914840 23.824260 3.4449630
418 76.734800 68.230200 39.075500 39.448240 42.192090 15.239630
419 100.00000 85.371700 46.654100 68.710300 70.336560 24.530730
420 100.00000 86.276700 64.217700 72.606280 72.879530 44.080700
421 100.00000 88.049300 79.462100 78.802880 78.456330 67.483020
422 100.00000 88.132700 89.308200 82.497260 80.025370 85.901980
423 40.624200 43.825100 27.341100 11.656850 14.255050 7.1450550
424 51.683700 59.992500 42.797900 21.828780 27.632940 17.475780
425 61.819900 75.774200 59.881400 36.288870 46.150260 35.646390
426 94.086000 94.086000 94.086000 82.814280 86.467360 97.863610
427 35.666700 21.986800 86.476100 20.584290 11.072640 77.118600
428 35.775400 37.338300 86.336700 22.421300 15.890940 76.121350
429 0.0000000 41.440300 81.465700 18.580090 15.249050 69.303360
430 8.4788000 62.535200 89.406800 29.139310 30.406060 88.842120
431 40.190400 70.682900 89.361500 35.491330 40.011420 88.142220
432 40.879200 87.924800 88.458700 43.743920 60.765170 86.559940
433 21.238400 82.327000 81.823400 37.538740 52.660240 72.674840
434 16.899300 74.976700 69.692600 28.820500 42.052390 50.699380
435 13.818300 91.518700 73.119200 40.931590 65.428510 54.536560
436 16.581000 94.974400 88.246400 49.221750 72.761930 83.842480
437 15.553900 54.555100 60.744800 16.413470 21.216410 37.348960
438 49.931700 56.208800 68.092900 25.841780 26.708110 46.364870
439 72.588100 64.073900 86.483900 46.480670 41.413760 78.043810
440 85.908700 68.325600 91.034500 60.423640 51.171260 89.632120
441 65.077100 10.591600 53.648400 23.042640 11.218010 28.424340
442 95.070800 15.304300 53.350300 46.462930 23.117020 27.502460
443 80.316300 14.925200 44.051500 32.268310 16.065190 18.410640
444 98.552900 37.477400 45.544400 48.748990 29.782150 19.042160
445 88.916100 39.440500 38.066900 38.702670 26.184270 14.478220
446 90.093200 50.851200 41.786500 42.712470 33.090450 18.167680
447 89.823600 56.241700 54.007500 47.553080 38.072710 28.293520
448 100.00000 61.796700 64.285700 60.773250 47.676860 41.269310
449 39.797800 15.199200 29.934200 7.7538870 4.6539280 8.1860330
450 41.237900 25.877500 33.985500 9.7127100 7.4635450 10.461790
451 66.694600 31.107100 44.314400 23.857420 15.280250 18.340780
452 31.059500 7.7815000 20.076400 4.2915760 2.3966040 3.7998570
453 48.052500 27.868900 19.501500 10.693320 8.6753910 4.1372320
454 56.221400 49.125300 44.899000 21.232470 20.948990 18.051720
455 64.852600 48.663000 45.758400 25.688670 22.971670 19.521270
456 66.144900 56.471100 59.510400 31.745030 29.630380 34.391240
457 70.604800 60.729400 69.334100 38.603930 35.592240 49.185440
458 78.586100 53.236300 23.340800 31.958950 28.582410 7.7684750
459 81.847100 65.755500 47.945000 43.280850 41.836970 21.986380
460 85.085200 75.358900 60.744500 52.449660 53.497990 37.121820
461 60.536600 59.560800 67.757100 31.329400 31.319720 45.425030
462 80.308800 67.913700 71.884700 48.792410 45.535760 52.322800
463 92.491500 76.938200 73.900300 65.017350 60.812880 55.483050
464 92.394000 86.137400 81.103200 71.341510 72.219760 68.470680
465 43.977800 39.851400 11.663700 10.940310 12.277480 2.2093620
466 61.478500 48.680700 15.361800 20.342280 20.087390 3.9412400
467 72.814800 58.320200 25.634500 30.699500 30.735970 8.0593550
468 17.997000 39.813700 17.679500 5.3892840 9.7410330 3.4842240
469 21.526500 47.435100 30.383500 8.3241550 14.097610 8.5691170
470 23.824300 47.795400 43.387300 10.227000 15.134630 17.284450
471 0.0000000 0.0000000 0.0000000 0.0818856 0.0829110 0.1464850
472 86.026900 23.607200 100.00000 49.789390 27.866140 101.50430
473 100.00000 100.00000 100.00000 94.145620 98.921390 111.60550
474 55.360300 39.077500 57.915200 21.310590 16.530060 32.208710
475 56.100700 43.335800 75.000200 27.067940 20.815430 56.177280
476 64.572400 43.449300 89.673300 36.857960 25.293720 84.774960
477 28.886400 10.914200 55.939200 8.8114180 4.5475970 28.637600
478 44.922100 16.457800 56.580800 13.822360 7.4784310 30.541930
479 85.081800 15.245000 57.555400 39.054550 19.237470 33.420430
480 92.585200 14.580300 69.162700 49.764090 24.364680 51.073950
481 10.689600 4.5152000 11.636200 0.9713020 0.6776220 1.6409730
482 18.571000 6.1655000 21.231600 2.1517310 1.3055150 4.0814370
483 34.265100 51.241500 20.848700 10.674740 17.514800 4.9016150
484 18.682000 53.459900 14.897100 9.3822330 17.928090 3.4322800
485 17.566700 69.835100 32.939800 18.332260 33.377830 11.673410
486 15.347300 83.409200 46.092800 28.631860 50.838790 22.437980
487 24.347300 86.156800 77.099300 38.184260 57.324190 62.285580
488 57.986900 89.900700 84.690600 48.644910 65.817680 76.762780
489 8.8392000 8.0313000 30.391400 2.2078570 1.3807790 7.7438900
490 24.924800 7.1650000 33.529200 4.2850020 2.2776550 9.8971370
491 32.144500 9.6450000 45.596400 7.3494950 3.8423710 18.495050
492 32.220300 66.887600 52.065800 19.839950 31.980900 25.389800
493 43.747000 77.918800 77.155200 33.936530 46.544380 62.353610
494 64.313500 83.130500 84.903900 48.745530 58.237470 77.260610
495 13.996100 52.916500 42.533200 11.801310 18.665940 16.213810
496 22.197800 57.116700 53.584200 15.587530 22.678700 27.450670
497 32.409000 63.135800 63.862800 20.562730 28.510200 40.831260
498 12.658100 37.203600 34.353200 6.1508990 8.9377010 10.846040
499 22.692400 43.908300 47.257100 10.151200 13.205570 21.128590
500 36.603200 54.479900 55.387800 17.091200 21.685890 29.379750
501 38.177400 62.441400 55.883300 20.005770 28.089800 29.726410
502 0.0000000 24.122300 53.965600 7.0589580 5.5060350 27.189130
503 14.583000 29.404800 59.130100 9.2064340 7.5498280 33.097310
504 28.204600 35.638500 61.357800 12.461000 10.895150 35.296550
505 86.680400 38.812400 60.565000 43.609440 26.449990 36.152420
506 87.837300 49.878100 66.076700 48.296480 33.570050 43.556480
507 0.0000000 0.0000000 0.0000000 0.0818885 0.0829084 0.1466500
508 9.1635000 4.8250000 22.123500 1.3639970 0.7992080 4.1625060
509 13.029700 10.796800 49.022600 5.1885940 2.8195600 21.000130
510 39.577200 9.8778000 66.719500 13.937340 6.7056150 42.321120
511 53.292200 12.422100 67.211400 19.401160 9.3859780 44.534060
512 89.381600 30.541500 69.292300 47.897200 25.739050 51.387760
513 75.028000 23.512200 60.547000 31.877620 16.695130 37.075410
514 91.359500 45.818300 73.376000 53.563760 33.926050 56.195880
515 100.00000 58.748100 73.668800 62.529550 47.006950 54.836520
516 49.855600 0.0000000 74.781000 20.329840 9.3098130 57.006610
517 76.215200 31.865100 85.810700 40.952270 22.729330 79.736520
518 67.074900 13.848300 74.128300 29.261550 13.892240 58.042630
519 68.693000 18.785600 86.811100 35.079410 17.308550 80.028780
520 22.085300 51.781500 77.954900 20.454570 20.881750 63.645140
521 22.022300 63.563600 83.926600 27.265270 30.573940 76.436040
522 25.910800 81.340200 87.601200 38.972480 51.762040 84.541720
523 68.393200 9.0821000 11.816000 20.177380 10.250880 1.9692720
524 74.773200 24.299700 10.527100 23.170370 13.952490 2.3393040
525 90.271100 43.236100 9.9036000 41.159370 27.615250 3.2899930
526 100.00000 44.578200 20.451200 47.731070 31.892710 5.6083540
527 100.00000 100.00000 62.607700 79.674700 92.762560 42.072100
528 0.0000000 65.605800 84.441600 28.571740 32.568540 78.475270
529 10.623300 75.253900 91.032500 36.837070 44.500940 93.626830
530 16.475600 5.6648000 9.5322000 1.3557510 0.8792200 1.2619630
531 26.360900 7.4016000 8.7758000 2.7078720 1.7341770 1.1594360
532 46.349500 27.953700 9.3001000 9.4193280 7.8832430 1.6698810
533 46.637400 79.139800 14.162100 23.403370 43.900530 7.5250230
534 64.709100 91.088100 13.840900 38.088000 63.637200 10.460300
535 86.058800 100.00000 23.870300 57.925280 83.460490 13.374580
536 85.407400 100.00000 47.454000 60.970500 84.103730 26.471690
537 13.126500 57.359200 32.944800 12.381830 21.652130 10.690120
538 17.520300 86.274400 32.734300 28.304640 53.170050 13.186960
539 56.925800 88.434900 47.142700 36.969100 59.837010 23.508880
540 43.466100 57.461600 33.286800 16.580320 23.785180 11.041630
541 44.285200 63.216700 46.590700 20.468490 28.819780 20.755150
542 51.920100 67.215400 57.381500 27.118170 35.190400 31.043410
543 67.419700 17.628600 46.692500 23.720360 12.104680 21.100310
544 69.044800 18.636100 65.529500 28.462020 14.262220 44.139350
545 80.852500 49.633300 72.832800 43.911460 31.316500 55.523580
546 88.085500 61.473300 76.857100 55.374770 43.858550 61.561660
547 52.925400 38.820600 13.578700 14.424870 13.423100 2.6991710
548 66.666800 43.751400 14.029100 21.301550 18.826800 3.8285660
549 73.671500 74.790200 12.262100 37.048050 46.520490 7.2452210
550 77.016100 87.820500 11.674200 44.842300 63.064570 9.9810420
551 91.504100 90.893800 11.197000 59.996930 73.768640 11.209870
552 12.835800 39.089700 28.142900 5.8775360 9.5864060 7.1349750
553 30.762100 40.841300 40.919400 9.8009580 11.915910 15.211990
554 41.076800 48.852300 51.574700 16.379190 18.328870 25.289380
555 60.114800 62.604800 52.624300 28.383990 32.050190 25.923110
556 33.972300 19.243800 0.0000000 4.9781320 4.0791000 0.5493100
557 46.574600 19.097500 17.080300 8.8657600 6.0605290 3.2145800
558 47.429600 49.599600 15.851500 14.224060 18.076870 3.1827190
559 62.255700 50.589600 28.519800 22.354720 22.364040 8.6514550
560 63.436000 61.517900 29.941300 26.411120 30.690690 9.4612060
561 87.562700 62.657200 52.974600 47.273290 41.636830 27.405750
562 91.029900 66.749100 64.392000 55.766580 48.501620 41.027420
563 19.932700 9.9527000 7.4464000 1.9305330 1.5143620 0.9617380
564 28.609500 15.345600 10.286000 3.4798420 2.8149920 1.5253110
565 69.096300 17.746600 24.338400 21.158960 11.502800 5.7085400
566 84.938500 31.566600 38.874300 35.645090 21.421240 13.897670
567 91.140500 33.135100 53.114600 45.604170 25.801420 26.446380
568 40.613300 28.932500 16.692800 8.1646960 7.4855880 3.2239790
569 58.500800 37.151000 20.218200 16.607930 14.086350 4.6882830
570 67.530200 48.515300 33.638000 24.999060 22.711240 11.449350
571 69.537800 58.491700 47.084700 31.731860 31.293950 20.926920
572 73.980200 87.299800 68.106600 51.969870 65.039510 48.495780
573 89.346500 93.754200 77.752800 70.549570 80.745400 63.695170
574 100.00000 100.00000 100.00000 94.039850 98.799490 111.76390
575 57.633100 64.165200 11.610300 22.940090 31.359310 5.1633760
576 59.569600 78.480600 16.684500 29.218780 45.955140 7.6055390
577 45.346600 64.767100 75.527800 29.311050 32.898380 60.408160
578 62.911700 67.540600 89.573300 43.125140 42.376670 84.584630
579 0.0000000 0.0000000 0.0000000 0.0819997 0.0830590 0.1468540
580 7.4441000 17.041200 16.956300 1.4249290 1.9802260 2.6952010
581 11.320200 21.391100 25.439100 2.5200010 3.1340250 5.8148600
582 39.566900 30.880600 45.917100 11.233390 9.3132360 18.812680
583 90.699900 35.715700 88.305300 55.688370 30.669310 86.712700
584 79.548700 0.0000000 70.335200 37.562350 18.147360 53.714380
585 83.593000 20.574300 73.180400 42.093560 20.829460 57.798390
586 39.111700 8.3865000 33.543100 7.5593520 3.7021110 10.679870
587 54.999900 18.253300 44.931900 16.165550 8.7840590 19.273410
588 62.962600 29.566900 58.423500 23.863380 14.457190 33.467550
589 62.659100 40.426900 68.283500 27.907380 20.041990 47.227040
590 38.712600 51.043500 60.095600 18.099050 19.951060 35.339240
591 50.768600 57.646100 62.469300 24.610180 26.740990 37.879970
592 16.527500 22.822400 61.084500 9.1022870 6.1210440 35.303930
593 17.850100 27.305200 90.545400 19.987480 11.491400 87.281340
594 12.805900 32.102200 84.003500 17.242840 11.364390 73.021100
595 14.973700 52.755000 88.979200 25.088490 23.077210 86.101780
596 31.858200 62.092700 90.126000 30.301830 30.909980 89.049490
597 50.157900 65.241800 92.023400 37.794530 37.000330 92.468520
598 76.512300 60.481500 77.054500 44.654730 38.061860 61.269350
599 90.516000 61.903900 87.030100 60.951550 46.001490 81.668000
600 17.784600 24.764600 19.210000 3.0872060 4.0763340 3.4104930
601 22.391600 30.757500 31.388400 5.4408320 6.5525720 8.6217810
602 24.539400 32.670000 39.127400 7.0858810 7.6081780 13.785450
603 0.0000000 21.925400 12.844800 1.8469620 3.0501890 2.0468480
604 11.315700 27.374800 17.581200 2.7825250 4.6520360 3.0553790
605 11.344600 31.773300 41.509300 5.8428870 6.7353210 15.803770
606 53.598400 73.187000 48.452700 28.277910 40.535130 22.997930
607 67.552700 75.322200 67.371000 41.427820 48.043850 45.605860
608 74.222700 78.996000 88.261700 54.718810 57.116010 82.851210
609 76.982300 86.897000 91.156300 61.889100 68.342540 90.565280
610 11.428900 27.639800 24.733900 3.2508930 4.7485660 5.5971350
611 13.859600 31.316600 35.236500 5.0179270 6.4924850 11.240390
612 17.804400 67.396400 70.347400 24.954870 33.650570 52.400020
613 19.423500 70.626000 80.517600 29.676740 37.628490 69.893970
614 35.318900 77.395200 89.728200 36.948240 45.824520 90.196220
615 22.817200 22.060500 29.092600 4.3678480 4.1718540 7.1795740
616 43.877600 32.662700 29.425700 10.718030 9.6735490 7.7317110
617 52.984200 32.367900 37.005100 15.200270 11.658580 12.324760
618 65.924600 37.902000 40.582900 22.811140 17.165500 15.040980
619 66.090600 60.683400 55.109400 32.367910 33.008030 29.344830
620 12.226900 63.430600 19.336700 13.841530 26.329940 5.2625230
621 5.4753000 87.637800 20.521400 28.749030 55.309070 9.3101290
622 29.411800 100.00000 24.853900 38.165660 73.373410 12.637350
623 27.402000 100.00000 47.194000 40.668230 74.443430 24.952020
624 44.630500 67.982800 14.359400 18.625850 32.392230 5.5830080
625 87.864000 70.966400 27.237600 48.339190 47.854170 8.5303660
626 88.325000 86.282700 26.777800 54.814970 65.718620 10.195090
627 98.306500 89.420100 39.867300 69.628390 75.039160 17.964120
628 20.692900 43.044300 10.006800 5.8360120 11.127080 2.1405020
629 36.232600 43.228400 15.524900 9.0383530 12.741040 3.0988690
630 86.740800 75.308100 11.176900 48.761010 51.206380 7.4987920
631 86.491400 78.593500 39.710000 51.377780 55.730190 16.295980
632 58.667100 0.0000000 14.188200 14.670850 7.4411530 2.4996410
633 90.039900 6.8701000 26.725300 39.599840 20.002350 7.1043490
634 94.003700 22.625600 26.047000 42.281240 22.468300 6.4441780
635 36.822300 15.217100 8.0631000 5.1644080 3.6714690 1.3359830
636 37.933100 22.933000 18.371000 6.7697110 5.5882860 3.4452490
637 26.904000 22.631700 17.037300 4.2217920 4.3090370 2.7483410
638 35.050800 25.602800 27.069100 6.9433270 6.1178430 6.5239270
639 59.729700 43.184500 47.472400 22.272040 18.628720 20.918610
640 76.033100 53.871400 53.751100 35.535930 30.214540 27.182630
641 76.269000 62.583400 61.385600 40.667010 38.063370 36.400920
642 51.341300 47.387200 25.381900 16.054740 17.606660 6.4649860
643 53.172200 56.425500 33.116200 19.862720 24.516340 10.554860
644 58.494800 71.803900 39.660800 28.348350 39.467660 15.911340
645 70.624500 73.818500 43.295700 37.134410 45.484560 18.569240
646 75.752400 78.997700 60.557600 46.263960 53.619230 36.881650
647 10.059000 30.648600 51.930300 7.4517200 7.0709350 24.822040
648 11.928200 41.477200 58.351800 11.255880 12.128330 33.049390
649 15.134700 42.831800 66.597600 13.798490 13.700930 44.044520
650 17.645500 54.588800 70.952000 19.096660 21.634590 52.943520
651 26.157900 62.909200 75.092500 23.685930 28.656230 59.975080
652 13.452200 43.307000 52.732800 10.427390 12.662400 26.109430
653 25.304200 51.901600 62.223200 15.937080 19.246660 38.965870
654 24.300600 87.325600 62.883000 34.380100 57.142420 39.164800
655 44.755700 91.422100 67.430100 38.786880 63.754210 46.244260
656 26.612700 36.298800 16.057100 5.6833560 8.5321590 2.9559740
657 45.167000 38.597100 24.083200 11.690030 11.948720 5.6574610
658 45.907000 41.004900 34.454700 13.338240 13.614290 10.789600
659 59.777900 87.904700 93.559300 52.965160 64.062760 99.948060
660 69.622600 88.269300 100.00000 63.574040 68.838520 108.61750
661 12.643300 18.620300 68.745200 10.504180 5.7597190 46.490330
662 18.866100 32.382800 71.182200 13.551650 10.204900 50.678000
663 39.224800 32.049800 71.545700 17.348000 12.146880 50.135310
664 67.735900 54.007400 84.629300 39.708230 31.994900 75.245770
665 0.0000000 67.250500 36.578700 17.418480 30.887220 13.817500
666 14.846400 75.776300 58.237500 25.635580 41.486180 32.611230
667 12.343300 93.910100 58.553400 38.729690 67.112220 35.521040
668 0.0000000 44.746600 39.040500 8.5731040 12.875700 13.916450
669 9.6206000 46.041100 46.123200 10.158310 14.129850 19.976540
670 70.205400 45.855000 62.949900 32.470600 24.349140 39.598740
671 8.1176000 9.8951000 15.408600 1.0990740 1.0948660 2.3101960
672 17.631100 13.279300 19.392200 2.2815760 2.0020590 3.3054670
673 35.322000 16.605100 20.996900 5.7052240 3.9829110 4.2007600
674 50.852000 11.612300 20.641300 10.653340 5.7079960 4.2015340
675 55.661800 22.484400 28.936400 14.276280 9.1248290 7.6062530
676 60.447900 71.137700 27.536500 27.298310 38.260560 8.7283500
677 23.250200 51.887600 0.0000000 8.8912960 17.062570 3.0240140
678 30.871400 55.606100 41.951100 13.606430 21.208340 16.184830
679 39.108500 49.706800 37.239700 13.447490 17.713430 12.882050
680 50.040200 50.447500 40.305900 18.101920 20.283940 14.943590
681 63.395100 81.754800 73.418700 43.259630 54.824470 54.951640
682 77.540900 87.503600 79.051600 58.087490 67.754890 66.161950
683 92.789900 93.290600 86.982000 77.722200 83.443920 81.560520
684 6.8746000 45.476900 19.953200 7.0487350 12.830730 4.5173680
685 57.630900 49.759600 38.286300 21.084100 21.344620 13.544770
686 74.555200 52.863100 44.799500 32.506390 28.565280 18.954850
687 63.073900 19.811000 0.0000000 15.747180 9.3806450 0.9736870
688 77.222400 21.623100 19.830400 25.275690 14.462010 4.5768800
689 88.861900 50.924100 20.838600 39.333790 30.981100 6.3737250
690 88.747500 59.640900 41.044900 43.926960 38.105730 17.925530
691 93.006100 72.635200 57.556800 57.661540 53.679580 32.385390
692 24.486400 29.953400 6.3298000 3.9751040 5.7286000 0.9224800
693 36.045200 31.197500 11.882000 6.9393540 7.5230950 1.8675740
694 54.989200 64.331200 61.467000 28.467010 33.161840 36.887060
695 61.284600 68.763600 73.608200 36.863880 39.963920 55.821720
696 25.071000 15.915500 16.955300 3.3195260 2.7502860 2.7170350
697 29.112000 18.272000 25.417700 4.7363710 3.6980790 5.7869230
698 29.577200 20.840600 34.017100 5.8468830 4.5585240 10.168590
699 30.761000 23.162600 73.242600 14.726920 8.6909780 52.707880
700 49.027800 33.219200 82.307300 24.512420 15.765830 69.292680
701 15.456500 8.1335000 58.838300 7.3716130 3.4195040 31.928800
702 18.332100 12.806100 88.646900 17.470910 7.9315870 81.456270
703 48.735900 9.1214000 87.524600 23.932690 10.948290 78.934510
704 57.769300 29.158700 89.962800 30.642880 17.366750 84.919410
705 41.160200 26.520900 51.556400 12.260720 8.6317400 24.366140
706 50.458700 31.375300 65.593400 19.338290 13.093500 41.042890
707 54.757700 47.103900 88.300000 31.996060 24.541830 80.677170
708 63.771500 58.995300 94.540500 42.835410 35.853600 96.848190
709 17.736700 65.985300 57.601800 20.275960 30.884400 31.686780
710 53.313400 72.285700 70.640100 33.054390 41.175740 51.162380
711 62.112800 72.348500 82.594400 41.917920 44.929130 72.213880
712 88.476600 79.635700 83.111400 64.909040 62.839250 73.054120
713 89.045400 84.407400 92.790900 71.072510 70.072760 94.096290
714 35.479100 30.404800 36.753700 8.6904340 8.0217450 12.073050
715 47.103300 37.143500 39.716700 13.829830 12.465500 13.897170
716 32.481100 63.242400 20.951200 13.636340 25.839370 5.5707190
717 37.543300 80.600800 25.723400 24.014560 45.847530 8.8879660
718 37.267600 89.670800 40.647300 31.944910 58.728740 18.822150
719 47.666000 90.391900 79.784100 42.334540 63.671680 65.538060
720 49.337300 90.519700 100.00000 55.350300 66.518120 108.78300
721 39.474300 39.586600 47.644700 12.909590 12.722380 20.448150
722 42.584100 42.658200 58.307800 16.759770 15.778980 31.666760
723 51.424300 48.323800 58.235100 21.157460 20.104080 31.585210
724 51.835900 50.936800 70.492800 25.658320 23.709990 49.393870
725 82.837600 50.967400 91.333900 51.881700 35.586210 91.524920
726 4.0246000 7.8598000 21.307100 1.1628830 0.9475190 4.0610270
727 6.6227000 15.739800 24.387400 1.8335970 1.9032990 5.2073140
728 24.331800 24.339300 44.077900 6.6169440 5.4587660 16.939740
729 33.067900 33.375700 51.867100 10.954900 9.6831130 24.613990
730 36.779200 45.888400 69.627400 18.967420 17.663570 48.728470
731 62.894700 61.805500 77.262800 36.061480 34.893690 60.414380
732 72.097600 95.000600 79.451700 58.241560 76.390010 65.945890
733 85.066200 58.433600 12.489700 39.226210 34.409650 4.7868270
734 94.642100 69.128800 13.964200 54.173310 48.592290 6.6817470
735 17.880600 15.752900 9.0586000 1.9641940 2.0454510 1.1905370
736 19.455900 15.886700 33.833300 3.8522750 2.8848910 9.7606950
737 31.155300 17.843200 40.772400 6.8269020 4.5405880 14.742070
738 49.729900 76.153400 83.212800 37.794240 45.969250 74.249590
739 58.972600 78.272800 91.951200 47.213100 52.146670 93.478990
740 77.551300 15.413200 34.163600 28.481730 14.293430 10.721270
741 79.637900 25.633900 52.752900 33.695900 18.165090 26.772700
742 53.623100 8.6761000 35.087000 13.706660 6.7846380 11.563480
743 55.344100 21.258200 36.695500 15.241900 8.9584120 12.381170
744 54.812600 47.234700 52.050400 21.202640 19.845410 24.779360
745 61.743300 47.544900 58.290900 25.894600 21.875760 32.781060
746 75.258400 54.891600 63.602300 38.031260 31.739890 39.824490
747 90.698600 73.285500 81.915600 63.833750 56.457240 71.197540
748 43.316100 8.0666000 10.579200 6.8521560 3.7156750 1.6634830
749 50.104100 22.815900 10.569500 10.071590 7.2092440 1.9905950
750 62.279000 31.575800 10.485900 16.467420 12.256120 2.3887650
751 72.174000 34.515100 19.355600 22.481170 16.258810 4.9148710
752 78.948400 38.983100 51.803100 34.461390 22.592060 25.462760
753 18.531200 0.0000000 10.462300 1.5517420 0.8003130 1.6261810
754 33.372100 0.0000000 34.989200 6.1813470 2.9653570 11.320980
755 41.342900 12.657000 43.243100 9.5702210 5.0463010 17.055130
756 47.357600 19.684700 78.827600 21.063390 11.119260 62.874850
757 88.446300 20.927400 87.890300 51.541180 25.047540 86.023650
758 55.154900 15.379300 7.2038000 11.457270 6.7748270 1.3724060
759 57.679300 15.967400 17.290400 13.362980 7.7484740 3.3275710
760 62.458900 25.928500 17.531800 16.063890 10.945880 3.8920350
761 75.975400 41.097900 14.279700 25.643940 19.955270 4.0065550
762 74.845700 60.034200 13.060200 31.649300 31.429470 4.8013010
763 74.406600 68.361100 21.150600 35.814550 40.286520 6.2338400
764 74.505400 70.476400 79.329600 47.709870 46.781910 64.844350
765 76.176600 75.206200 92.116200 55.974860 54.525440 91.554730
766 15.518400 23.501400 34.587600 4.2483210 4.2311210 10.677290
767 28.281000 28.151500 38.946000 7.0864020 6.7178340 13.025370
768 29.848900 40.560400 50.059600 11.190980 12.077870 23.539100
769 28.139800 38.481300 100.00000 26.400510 18.266980 101.61780
770 50.028300 38.986500 100.00000 32.422350 21.794490 101.87350
771 70.337900 40.216900 79.716400 35.743280 23.474400 65.735160
772 89.403700 46.298200 83.541200 54.479350 34.315050 75.743310
773 100.00000 74.313600 86.873800 73.219160 61.881190 79.203280
774 63.611400 60.916800 43.058100 27.913240 30.888440 17.619510
775 63.959900 70.728500 50.136600 32.667190 40.283150 24.745520
776 83.309600 86.562900 51.353800 53.599210 65.144830 27.225820
777 91.664900 86.500100 58.445700 63.935930 69.839490 34.143900
778 88.697900 13.182100 11.659100 35.963510 18.246740 2.1823400
779 89.708200 33.632000 13.140400 38.083490 23.027420 2.9067150
780 88.867800 44.887600 27.926000 37.181550 27.268560 9.4650740
781 90.821000 48.793600 55.404000 46.931130 33.042390 29.059370
782 46.130000 9.4984000 24.988600 9.1311120 4.5797910 5.9782540
783 61.305800 10.863300 26.583800 16.421690 8.2763670 6.6409820
784 82.749500 20.310000 28.750500 31.143610 16.690900 7.6991460
785 65.872100 78.034000 0.0000000 32.441190 46.997540 7.6888620
786 75.758800 89.442700 30.777800 44.929270 64.395850 11.752270
787 87.086300 89.720100 41.588800 56.520270 70.185850 18.568610
788 39.918100 54.402500 82.891500 26.594630 25.316070 71.460360
789 55.042700 55.365300 83.257600 32.209980 28.750660 70.922470
790 76.394700 91.008800 87.821100 61.935110 73.271320 82.579080
791 96.994500 96.994500 96.994500 87.649150 91.643000 105.28350
792 11.253600 28.340600 10.046600 2.5956320 4.7312820 1.4960740
793 21.129800 33.545900 20.361800 4.6310300 7.0687750 4.0001000
794 25.695900 34.451000 27.773900 6.1783550 7.9229480 7.0074410
795 69.748900 30.547000 29.876700 22.256820 15.084030 8.6698190
796 79.075800 36.513500 29.315100 28.449670 19.949740 9.3024700
797 78.390800 44.360900 43.721000 32.402630 24.654900 17.981490
798 91.912700 75.110300 46.223600 55.256010 54.542230 21.964360
799 13.742700 17.571800 45.537600 5.0652920 3.5720840 18.146410
800 12.775200 39.495100 72.041400 14.880720 12.935580 53.261690
801 39.158400 41.190200 73.861500 19.509530 15.908150 53.577620
802 16.336300 0.0000000 25.550300 2.2369840 1.0687360 5.7794840
803 49.628400 59.598900 24.575200 18.061230 25.406390 6.7958920
804 32.813200 82.940600 0.0000000 25.015780 48.080460 8.2887040
805 46.320400 90.228800 10.921200 30.791540 59.224690 10.006950
806 52.731700 89.753400 32.347600 32.459480 59.002330 12.976560
807 0.0000000 24.669900 42.810900 4.8920870 4.6463920 16.149260
808 52.547300 31.123200 43.735000 15.864940 11.353200 17.730170
809 64.144900 33.509600 51.829400 23.561820 15.520000 25.361890
810 68.298100 41.446400 51.606900 27.823500 20.495880 25.453300
811 76.668800 71.672700 51.158600 42.014780 45.359310 25.519780
812 82.831700 74.162400 68.246900 51.874860 51.542840 46.922150
813 83.209600 82.684800 72.262700 57.389130 62.384560 53.958950
814 34.550000 75.827500 35.398400 21.711460 39.719140 13.288290
815 72.228300 90.077900 45.525600 45.708630 65.565600 22.017990
816 86.252000 90.266200 66.618500 62.023280 72.938160 45.912600
817 7.5558000 16.043100 9.5691000 1.0621720 1.6721070 1.2909990
818 23.874500 24.503600 11.084300 3.5247860 4.2324370 1.6871350
819 34.771300 31.461500 24.751800 7.3944920 7.7693710 5.7257510
820 36.654600 42.566500 35.756100 10.774490 13.058650 11.289270
821 35.554500 67.126800 40.606400 17.935020 30.595340 16.302870
822 45.646400 77.212000 57.699200 28.274510 43.540640 32.244270
823 57.881400 89.561400 61.384300 40.768950 61.765500 38.479690
824 46.840200 81.477100 49.429100 29.280170 48.619540 24.620870
825 94.212400 86.265900 71.468900 69.145410 71.092410 52.591500
END_DATA
CAL    

DESCRIPTOR "Argyll Device Calibration State"
ORIGINATOR "Argyll dispread"
CREATED "Tue May 26 10:39:49 2020"
DEVICE_CLASS "DISPLAY"
COLOR_REP "RGB"

BEGIN_ARGYLL_DISPCAL_ARGS
-v2 -qm -m -w0.3127,0.329 -gs -f1.0 -k0 -A4.0 -d1 -c1 -yn -P0.498740554156,0.5,2.21916508539 -X "Surface Book Pro 5th Gen.ccmx"
END_ARGYLL_DISPCAL_ARGS


NUMBER_OF_FIELDS 4
BEGIN_DATA_FORMAT
RGB_I RGB_R RGB_G RGB_B
END_DATA_FORMAT

NUMBER_OF_SETS 256
BEGIN_DATA
0.00000000 0.00000000 0.00000000 0.00000000
0.00392157 0.03002790 0.02995900 0.02974130
0.00784314 0.05355030 0.05355300 0.05225150
0.01176470 0.06899770 0.06930320 0.06769910
0.01568630 0.07907960 0.07960050 0.07804330
0.01960780 0.08642080 0.08701180 0.08556670
0.02352940 0.09223560 0.09281830 0.09148800
0.02745100 0.09711380 0.09765080 0.09642530
0.03137250 0.10139500 0.10186200 0.10070900
0.03529410 0.10523500 0.10561700 0.10456600
0.03921570 0.10877800 0.10907100 0.10809800
0.04313730 0.11207800 0.11227600 0.11141500
0.04705880 0.11518800 0.11530000 0.11455300
0.05098040 0.11819800 0.11822300 0.11755100
0.05490200 0.12111200 0.12105500 0.12048900
0.05882350 0.12394300 0.12380300 0.12336700
0.06274510 0.12671600 0.12650100 0.12619200
0.06666670 0.12947800 0.12919300 0.12897600
0.07058820 0.13223700 0.13188300 0.13176600
0.07450980 0.13498900 0.13456600 0.13456600
0.07843140 0.13773500 0.13723900 0.13737500
0.08235290 0.14047200 0.13990300 0.14018500
0.08627450 0.14322900 0.14259200 0.14299500
0.09019610 0.14604400 0.14533600 0.14580700
0.09411760 0.14890900 0.14812500 0.14867100
0.09803920 0.15182200 0.15095700 0.15160000
0.10196100 0.15478000 0.15383200 0.15458100
0.10588200 0.15778000 0.15674500 0.15761100
0.10980400 0.16082300 0.15969600 0.16068600
0.11372500 0.16389300 0.16267400 0.16380800
0.11764700 0.16697400 0.16566500 0.16698000
0.12156900 0.17010000 0.16870700 0.17017500
0.12549000 0.17330000 0.17182500 0.17338900
0.12941200 0.17655800 0.17500700 0.17666600
0.13333300 0.17986200 0.17824700 0.18000300
0.13725500 0.18318700 0.18152500 0.18339300
0.14117600 0.18652500 0.18482900 0.18681200
0.14509800 0.18987400 0.18816200 0.19023800
0.14902000 0.19323300 0.19152100 0.19367300
0.15294100 0.19660200 0.19491200 0.19711400
0.15686300 0.19993800 0.19829500 0.20056300
0.16078400 0.20322400 0.20164700 0.20401600
0.16470600 0.20646900 0.20497300 0.20743200
0.16862700 0.20968500 0.20828200 0.21079700
0.17254900 0.21287000 0.21157000 0.21412000
0.17647100 0.21603200 0.21484800 0.21740600
0.18039200 0.21923600 0.21818400 0.22065200
0.18431400 0.22245800 0.22154100 0.22387500
0.18823500 0.22567800 0.22489100 0.22712400
0.19215700 0.22891300 0.22824900 0.23037200
0.19607800 0.23216800 0.23161800 0.23362600
0.20000000 0.23543700 0.23499500 0.23690600
0.20392200 0.23871700 0.23837600 0.24021000
0.20784300 0.24201600 0.24177400 0.24354100
0.21176500 0.24536200 0.24520800 0.24689800
0.21568600 0.24874300 0.24865600 0.25029900
0.21960800 0.25210100 0.25205700 0.25375900
0.22352900 0.25542900 0.25541000 0.25725200
0.22745100 0.25872100 0.25872000 0.26072100
0.23137300 0.26199000 0.26200100 0.26416600
0.23529400 0.26526600 0.26529600 0.26758100
0.23921600 0.26856900 0.26861400 0.27097300
0.24313700 0.27188600 0.27193200 0.27438200
0.24705900 0.27520400 0.27525000 0.27781500
0.25098000 0.27853800 0.27858600 0.28124800
0.25490200 0.28189900 0.28194100 0.28467200
0.25882400 0.28524100 0.28525000 0.28810500
0.26274500 0.28853600 0.28852800 0.29154800
0.26666700 0.29183300 0.29180700 0.29494400
0.27058800 0.29514400 0.29509900 0.29829700
0.27451000 0.29848200 0.29841300 0.30165100
0.27843100 0.30184000 0.30174200 0.30501100
0.28235300 0.30520200 0.30507800 0.30838900
0.28627500 0.30857400 0.30842100 0.31177800
0.29019600 0.31195300 0.31176500 0.31517300
0.29411800 0.31533300 0.31510700 0.31857600
0.29803900 0.31872100 0.31847400 0.32198500
0.30196100 0.32217000 0.32190900 0.32539800
0.30588200 0.32567000 0.32538900 0.32882800
0.30980400 0.32920200 0.32889700 0.33233100
0.31372500 0.33271300 0.33237700 0.33589700
0.31764700 0.33618400 0.33582300 0.33950300
0.32156900 0.33961900 0.33923500 0.34308900
0.32549000 0.34302200 0.34262000 0.34664000
0.32941200 0.34640600 0.34598400 0.35015300
0.33333300 0.34977500 0.34932500 0.35362600
0.33725500 0.35312800 0.35263800 0.35707100
0.34117600 0.35643600 0.35590200 0.36049200
0.34509800 0.35972300 0.35917400 0.36388500
0.34902000 0.36303700 0.36247700 0.36722000
0.35294100 0.36638200 0.36581600 0.37052600
0.35686300 0.36976200 0.36920000 0.37384700
0.36078400 0.37319800 0.37264700 0.37718600
0.36470600 0.37670400 0.37615300 0.38054700
0.36862700 0.38025600 0.37968900 0.38395100
0.37254900 0.38383100 0.38324600 0.38742100
0.37647100 0.38744000 0.38684900 0.39094000
0.38039200 0.39108000 0.39047400 0.39448900
0.38431400 0.39469500 0.39405300 0.39806600
0.38823500 0.39822800 0.39754800 0.40168300
0.39215700 0.40166500 0.40095100 0.40529500
0.39607800 0.40503700 0.40429100 0.40885300
0.40000000 0.40838100 0.40762600 0.41232800
0.40392200 0.41175700 0.41099200 0.41572200
0.40784300 0.41516800 0.41438600 0.41906700
0.41176500 0.41860500 0.41780300 0.42240500
0.41568600 0.42207500 0.42125200 0.42576800
0.41960800 0.42557000 0.42471500 0.42914800
0.42352900 0.42907600 0.42819400 0.43254200
0.42745100 0.43260500 0.43168100 0.43595900
0.43137300 0.43610300 0.43512400 0.43938800
0.43529400 0.43957000 0.43855000 0.44282400
0.43921600 0.44304500 0.44198600 0.44627500
0.44313700 0.44651900 0.44542500 0.44969000
0.44705900 0.44998400 0.44885900 0.45307400
0.45098000 0.45342300 0.45227300 0.45646800
0.45490200 0.45684100 0.45567900 0.45986600
0.45882400 0.46023700 0.45907100 0.46325500
0.46274500 0.46361200 0.46245200 0.46662500
0.46666700 0.46697600 0.46583800 0.46997900
0.47058800 0.47034300 0.46923500 0.47332500
0.47451000 0.47371500 0.47264200 0.47666400
0.47843100 0.47710000 0.47609300 0.47999800
0.48235300 0.48055500 0.47964000 0.48333700
0.48627500 0.48413400 0.48332600 0.48669800
0.49019600 0.48780700 0.48705300 0.49008100
0.49411800 0.49147500 0.49075200 0.49352600
0.49803900 0.49512200 0.49442100 0.49709300
0.50196100 0.49874700 0.49806000 0.50080400
0.50588200 0.50234800 0.50167200 0.50452800
0.50980400 0.50593000 0.50526000 0.50824300
0.51372500 0.50949200 0.50882800 0.51194900
0.51764700 0.51303700 0.51236700 0.51564800
0.52156900 0.51656200 0.51589000 0.51934200
0.52549000 0.52007600 0.51940700 0.52302900
0.52941200 0.52359500 0.52292100 0.52670900
0.53333300 0.52711300 0.52642000 0.53036800
0.53725500 0.53060400 0.52987800 0.53400200
0.54117600 0.53405600 0.53331100 0.53761800
0.54509800 0.53752600 0.53677900 0.54123400
0.54902000 0.54103800 0.54029000 0.54483800
0.55294100 0.54459300 0.54383000 0.54839400
0.55686300 0.54816600 0.54737700 0.55189600
0.56078400 0.55174800 0.55094100 0.55540900
0.56470600 0.55534500 0.55449700 0.55895000
0.56862700 0.55889700 0.55799200 0.56251600
0.57254900 0.56237900 0.56142500 0.56609500
0.57647100 0.56581600 0.56482100 0.56969200
0.58039200 0.56922400 0.56819100 0.57329800
0.58431400 0.57261000 0.57153500 0.57685600
0.58823500 0.57600100 0.57489700 0.58035500
0.59215700 0.57943400 0.57828100 0.58382900
0.59607800 0.58286400 0.58163900 0.58729500
0.60000000 0.58626700 0.58496800 0.59076100
0.60392200 0.58964300 0.58826800 0.59426400
0.60784300 0.59298300 0.59152500 0.59781200
0.61176500 0.59628000 0.59473800 0.60136100
0.61568600 0.59952500 0.59789700 0.60489600
0.61960800 0.60273300 0.60105200 0.60841700
0.62352900 0.60596700 0.60424300 0.61190600
0.62745100 0.60923400 0.60746900 0.61535200
0.63137300 0.61253900 0.61074400 0.61874200
0.63529400 0.61591600 0.61411500 0.62211200
0.63921600 0.61940100 0.61760800 0.62550900
0.64313700 0.62301400 0.62123300 0.62893100
0.64705900 0.62675800 0.62497900 0.63238900
0.65098000 0.63060600 0.62881400 0.63593600
0.65490200 0.63452300 0.63271500 0.63960200
0.65882400 0.63850000 0.63668000 0.64340400
0.66274500 0.64253900 0.64072000 0.64733100
0.66666700 0.64664300 0.64478800 0.65135100
0.67058800 0.65070900 0.64880700 0.65544300
0.67451000 0.65469900 0.65274600 0.65960900
0.67843100 0.65858400 0.65658300 0.66385800
0.68235300 0.66233500 0.66028800 0.66810100
0.68627500 0.66593000 0.66384200 0.67225700
0.69019600 0.66938100 0.66726300 0.67632000
0.69411800 0.67272100 0.67057600 0.68024600
0.69803900 0.67599300 0.67383600 0.68401500
0.70196100 0.67924300 0.67707200 0.68761800
0.70588200 0.68247300 0.68028900 0.69108400
0.70980400 0.68569300 0.68351400 0.69444100
0.71372500 0.68895300 0.68678800 0.69774700
0.71764700 0.69225700 0.69010800 0.70103400
0.72156900 0.69560700 0.69347800 0.70431200
0.72549000 0.69899700 0.69688200 0.70759500
0.72941200 0.70241100 0.70030700 0.71093000
0.73333300 0.70582200 0.70373100 0.71431100
0.73725500 0.70921300 0.70713700 0.71774000
0.74117600 0.71257900 0.71053000 0.72120900
0.74509800 0.71592600 0.71390900 0.72470000
0.74902000 0.71926900 0.71730500 0.72818300
0.75294100 0.72265400 0.72075700 0.73164400
0.75686300 0.72608600 0.72423400 0.73508600
0.76078400 0.72952200 0.72770500 0.73850900
0.76470600 0.73296300 0.73117000 0.74191500
0.76862700 0.73641200 0.73463700 0.74532400
0.77254900 0.73987000 0.73809200 0.74877900
0.77647100 0.74332200 0.74152800 0.75223400
0.78039200 0.74676000 0.74493300 0.75569000
0.78431400 0.75018900 0.74834300 0.75914300
0.78823500 0.75367000 0.75180600 0.76259600
0.79215700 0.75722100 0.75533900 0.76603600
0.79607800 0.76086200 0.75894500 0.76945200
0.80000000 0.76458500 0.76260100 0.77284100
0.80392200 0.76836400 0.76629800 0.77626600
0.80784300 0.77219900 0.77004200 0.77974900
0.81176500 0.77605900 0.77378100 0.78330500
0.81568600 0.77988100 0.77747400 0.78693600
0.81960800 0.78363800 0.78109500 0.79062700
0.82352900 0.78730500 0.78463200 0.79437700
0.82745100 0.79091300 0.78813600 0.79818200
0.83137300 0.79449900 0.79162900 0.80198200
0.83529400 0.79807100 0.79512000 0.80573700
0.83921600 0.80162500 0.79860600 0.80942300
0.84313700 0.80519200 0.80212400 0.81303500
0.84705900 0.80877900 0.80567300 0.81662700
0.85098000 0.81238100 0.80925200 0.82022100
0.85490200 0.81601200 0.81287500 0.82382300
0.85882400 0.81969800 0.81655900 0.82743000
0.86274500 0.82343200 0.82028400 0.83108400
0.86666700 0.82720200 0.82404600 0.83478200
0.87058800 0.83098400 0.82780300 0.83852100
0.87451000 0.83473200 0.83152000 0.84231700
0.87843100 0.83842100 0.83517100 0.84619800
0.88235300 0.84205700 0.83876700 0.85014500
0.88627500 0.84570000 0.84238600 0.85415400
0.89019600 0.84940800 0.84606700 0.85817000
0.89411800 0.85318200 0.84980500 0.86217000
0.89803900 0.85699900 0.85358200 0.86614300
0.90196100 0.86083600 0.85736700 0.87012100
0.90588200 0.86465400 0.86113000 0.87419500
0.90980400 0.86844900 0.86487900 0.87838500
0.91372500 0.87229400 0.86868300 0.88266800
0.91764700 0.87618800 0.87253500 0.88700800
0.92156900 0.88009900 0.87640600 0.89136400
0.92549000 0.88400000 0.88027700 0.89574100
0.92941200 0.88792100 0.88417500 0.90024200
0.93333300 0.89186400 0.88809800 0.90485100
0.93725500 0.89581900 0.89204000 0.90950900
0.94117600 0.89978900 0.89600000 0.91422800
0.94509800 0.90379200 0.90000100 0.91903700
0.94902000 0.90781800 0.90402900 0.92391000
0.95294100 0.91187500 0.90809500 0.92885600
0.95686300 0.91595500 0.91218800 0.93387600
0.96078400 0.92006500 0.91630500 0.93897000
0.96470600 0.92421000 0.92044400 0.94413000
0.96862700 0.92839300 0.92460600 0.94934200
0.97254900 0.93261200 0.92878700 0.95460900
0.97647100 0.93686400 0.93298600 0.95992900
0.98039200 0.94115000 0.93720200 0.96529400
0.98431400 0.94546900 0.94143500 0.97070700
0.98823500 0.94982200 0.94568600 0.97616800
0.99215700 0.95421000 0.94995400 0.98167800
0.99607800 0.95863200 0.95424000 0.98723800
1.00000000 0.96309000 0.95854400 0.99284700
END_DATA
