CTI3   

DESCRIPTOR "Argyll Calibration Target chart information 3"
ORIGINATOR "Argyll dispread"
CREATED "Tue May 26 13:04:45 2020"
DEVICE_CLASS "DISPLAY"
SINGLE_DIM_STEPS "17"
COMP_GREY_STEPS "49"
DARK_REGION_EMPHASIS "1.6"
COLOR_REP "RGB_XYZ"
TARGET_INSTRUMENT "X-Rite i1 DisplayPro, ColorMunki Display"
DISPLAY_TYPE_REFRESH "YES"
INSTRUMENT_TYPE_SPECTRAL "NO"
LUMINANCE_XYZ_CDM2 "371.829794 391.232405 426.418188"
NORMALIZED_TO_Y_100 "YES"
VIDEO_LUT_CALIBRATION_POSSIBLE "YES"

BEGIN_ARGYLL_COLPROF_ARGS
-v -qh -aX -bn -C "No copyright. Created with DisplayCAL 3.8.9.3 and ArgyllCMS 2.1.2" -M "DELL U2718Q" -A "Dell, Inc."
END_ARGYLL_COLPROF_ARGS

OBSERVER "1931_2"
USE_BLACK_POINT_COMPENSATION "NO"
BLACK_POINT_CORRECTION "0.0"
HIRES_B2A "YES"
HIRES_B2A_SIZE "-1"
SMOOTH_B2A "YES"
PATCH_SEQUENCE "OPTIMIZE_DISPLAY_RESPONSE_DELAY"

NUMBER_OF_FIELDS 7
BEGIN_DATA_FORMAT
SAMPLE_ID RGB_R RGB_G RGB_B XYZ_X XYZ_Y XYZ_Z
END_DATA_FORMAT

NUMBER_OF_SETS 417
BEGIN_DATA
1 100.0000 100.0000 100.0000 95.04064 100.0000 108.9936
2 1.960800 1.960800 1.960800 0.241967 0.250879 0.321340
3 3.921600 3.921600 3.921600 0.374578 0.393451 0.468736
4 5.882400 5.882400 5.882400 0.526258 0.558281 0.632157
5 9.803900 9.803900 9.803900 0.981885 1.033149 1.171558
6 13.72600 13.72600 13.72600 1.656024 1.745623 2.009049
7 17.64700 17.64700 17.64700 2.528783 2.664659 3.049246
8 21.56900 21.56900 21.56900 3.620221 3.793895 4.493001
9 25.49000 25.49000 25.49000 5.086537 5.309722 5.904982
10 29.41200 29.41200 29.41200 6.660077 7.047169 7.735375
11 33.33300 33.33300 33.33300 8.591412 9.061209 9.867165
12 37.25500 37.25500 37.25500 10.90753 11.37737 12.52260
13 41.17600 41.17600 41.17600 13.35460 14.02647 15.22276
14 45.09800 45.09800 45.09800 15.98810 16.77155 18.32482
15 49.02000 49.02000 49.02000 19.23092 20.22416 22.08312
16 52.94100 52.94100 52.94100 22.79628 24.04308 26.02673
17 56.86300 56.86300 56.86300 26.73104 28.17714 30.38060
18 60.78400 60.78400 60.78400 30.93687 32.69440 35.26541
19 64.70600 64.70600 64.70600 35.45444 37.41149 40.66968
20 68.62700 68.62700 68.62700 40.53976 42.72620 46.15238
21 72.54900 72.54900 72.54900 46.04014 48.55130 52.77106
22 76.47100 76.47100 76.47100 51.39137 54.25075 59.15700
23 80.39200 80.39200 80.39200 58.12217 61.23459 66.21447
24 84.31400 84.31400 84.31400 64.43946 67.85867 74.06227
25 88.23500 88.23500 88.23500 71.28813 75.06054 81.50163
26 92.15700 92.15700 92.15700 78.39772 82.41281 90.68954
27 96.07800 96.07800 96.07800 86.60902 91.24855 99.25025
28 0.000000 17.12330 0.000000 1.143698 1.890067 0.478416
29 21.05490 23.54570 0.000000 3.159165 3.959316 0.729803
30 40.35650 30.49360 0.000000 7.792055 7.974664 1.226329
31 56.85870 45.05770 0.000000 16.86104 17.69670 2.531417
32 74.32640 47.72070 22.40360 26.56102 24.08360 7.882317
33 26.28740 13.39770 8.511500 2.850270 2.387392 1.236710
34 28.54730 14.81970 50.85940 7.342415 4.668698 21.75459
35 42.68880 19.46560 64.19720 13.56625 8.493015 35.91467
36 82.62020 26.78270 100.0000 44.09921 25.73897 98.03256
37 84.33650 75.19980 100.0000 64.19853 59.65438 103.1523
38 29.58730 65.73730 50.94750 22.66381 31.28696 25.79262
39 32.86590 100.0000 86.76650 58.04056 80.05716 80.56514
40 43.64160 100.0000 100.0000 65.47897 83.61322 107.1631
41 0.000000 61.23770 40.99460 16.41930 25.16425 17.39805
42 0.000000 71.64360 79.55630 30.71374 39.19412 62.21681
43 0.000000 81.57090 100.0000 44.70691 53.71671 102.9772
44 0.000000 100.0000 100.0000 60.04779 80.59058 106.9436
45 16.35170 87.55600 87.64450 44.84702 59.47866 78.60001
46 24.58050 88.93720 100.0000 51.91186 64.27361 104.9916
47 0.000000 26.87630 100.0000 21.38763 12.86721 96.61732
48 0.000000 47.42060 100.0000 26.43648 21.83579 97.64575
49 0.000000 24.30980 75.34300 11.98191 8.100924 50.87238
50 14.71240 27.69520 88.28750 17.38311 11.36737 72.60572
51 19.74670 13.79330 86.62820 15.26718 8.030958 69.14217
52 35.12880 25.63770 100.0000 24.28398 14.18429 96.68306
53 60.88100 28.95240 100.0000 33.06932 19.87382 97.26432
54 15.29130 45.52690 45.04500 10.90063 14.09425 18.14905
55 36.05590 56.44970 49.98350 19.09750 23.71347 23.80805
56 44.64540 59.16060 60.35710 24.46746 28.04437 34.61044
57 56.18440 94.69490 59.85760 51.95524 71.40347 41.24689
58 0.000000 31.25000 0.000000 3.328018 5.723026 1.016461
59 0.000000 36.88520 0.000000 4.566333 7.874238 1.340728
60 0.000000 43.10350 0.000000 6.366048 11.02758 1.800130
61 0.000000 50.00000 0.000000 8.664629 15.04239 2.394758
62 0.000000 57.69230 0.000000 11.91744 20.73075 3.267570
63 0.000000 66.32650 0.000000 16.34440 28.45123 4.449717
64 0.000000 76.08700 0.000000 22.11155 38.43394 6.135784
65 0.000000 81.68860 0.000000 25.98150 45.18235 7.226653
66 24.65280 82.42320 17.51790 29.08069 47.46775 11.31598
67 28.82400 18.62970 74.65300 13.14642 7.821506 49.48378
68 44.59760 32.95120 84.36190 22.18038 15.44420 66.43079
69 14.57610 8.675700 36.40090 3.130825 1.966324 10.84721
70 55.83750 12.51510 43.74700 13.17773 7.929894 16.16706
71 58.45760 12.11010 61.73440 17.48109 9.952205 33.13082
72 0.000000 0.000000 21.42860 0.863821 0.459445 3.986148
73 0.000000 0.000000 26.11940 1.175799 0.603597 5.566096
74 0.000000 0.000000 31.25000 1.607001 0.802253 7.752516
75 0.000000 0.000000 36.88520 2.190054 1.071878 10.70310
76 0.000000 0.000000 43.10350 2.958345 1.423443 14.59879
77 0.000000 0.000000 50.00000 4.113473 1.954036 20.44246
78 0.000000 0.000000 57.69230 5.445145 2.562754 27.17397
79 0.000000 0.000000 66.32650 7.490103 3.505517 37.54380
80 0.000000 0.000000 76.08700 10.26178 4.775066 51.57984
81 0.000000 0.000000 87.20930 13.81604 6.399161 69.62593
82 0.000000 0.000000 100.0000 18.91976 8.684407 95.54658
83 31.11780 43.66020 100.0000 27.77666 21.21097 98.12260
84 78.18210 0.000000 46.60270 23.51819 12.96343 18.76426
85 86.39850 16.69730 62.14020 32.99865 19.46481 34.31954
86 3.968300 3.968300 3.968300 0.377327 0.395346 0.481406
87 5.020100 5.020100 5.020100 0.463565 0.487670 0.571280
88 6.097600 6.097600 6.097600 0.580872 0.606288 0.704898
89 7.201600 7.201600 7.201600 0.653930 0.682253 0.792733
90 8.333300 8.333300 8.333300 0.785359 0.822498 0.955573
91 9.493700 9.493700 9.493700 0.933083 0.981984 1.117518
92 10.68380 10.68380 10.68380 1.110188 1.166948 1.365585
93 11.90480 11.90480 11.90480 1.322821 1.395846 1.635578
94 13.15790 13.15790 13.15790 1.576468 1.652704 1.970006
95 14.44440 14.44440 14.44440 1.843019 1.936966 2.226162
96 15.76580 15.76580 15.76580 2.073432 2.200673 2.465617
97 17.12330 17.12330 17.12330 2.424953 2.559362 2.954066
98 18.51850 18.51850 18.51850 2.739354 2.902437 3.334909
99 19.95310 19.95310 19.95310 3.213628 3.367384 3.832824
100 21.42860 21.42860 21.42860 3.623642 3.794607 4.507956
101 22.94690 22.94690 22.94690 4.085463 4.303410 4.931458
102 24.50980 24.50980 24.50980 4.533855 4.820514 5.314406
103 26.11940 26.11940 26.11940 5.399935 5.679595 6.284592
104 27.77780 27.77780 27.77780 5.945728 6.255008 6.963443
105 29.48720 29.48720 29.48720 6.654556 7.043642 7.765281
106 31.25000 31.25000 31.25000 7.527151 7.911210 8.796875
107 33.06880 33.06880 33.06880 8.497599 8.899233 9.861753
108 34.94620 34.94620 34.94620 9.356952 9.826716 10.86847
109 36.88520 36.88520 36.88520 10.65764 11.06005 12.22607
110 38.88890 38.88890 38.88890 11.77234 12.36698 13.59221
111 40.96050 40.96050 40.96050 13.10843 13.70018 15.06923
112 43.10350 43.10350 43.10350 14.71272 15.39715 16.76134
113 45.32160 45.32160 45.32160 16.32511 17.09682 18.73969
114 47.61910 47.61910 47.61910 17.94958 18.73183 20.79993
115 50.00000 50.00000 50.00000 20.24925 21.20783 23.35089
116 52.46910 52.46910 52.46910 22.51912 23.70619 25.58893
117 55.03140 55.03140 55.03140 24.69040 26.08093 28.25156
118 57.69230 57.69230 57.69230 27.57486 29.08688 31.44923
119 60.45750 60.45750 60.45750 30.63446 32.22612 35.19441
120 63.33330 63.33330 63.33330 33.50855 35.26568 38.45151
121 66.32650 66.32650 66.32650 37.46096 39.47016 42.80977
122 69.44440 69.44440 69.44440 41.57238 43.83305 47.71738
123 72.69500 72.69500 72.69500 46.00425 48.51543 52.72181
124 76.08700 76.08700 76.08700 50.87120 53.66845 58.51614
125 79.62960 79.62960 79.62960 56.62340 59.74128 64.71497
126 83.33330 83.33330 83.33330 62.63492 65.92764 71.74451
127 87.20930 87.20930 87.20930 69.17154 72.87882 79.34976
128 91.26980 91.26980 91.26980 77.00486 81.05435 88.97060
129 55.37750 0.000000 17.50980 9.855207 5.558227 3.336943
130 75.16160 0.000000 18.27990 18.72685 10.57904 4.330169
131 89.13920 16.30590 32.73970 30.29700 18.46787 10.73602
132 100.0000 31.81200 44.76270 42.31717 27.90185 19.70221
133 36.88520 0.000000 0.000000 4.161457 2.412131 0.427292
134 43.10350 0.000000 0.000000 5.630640 3.238042 0.495500
135 100.0000 32.09000 0.000000 39.16573 26.56431 3.320712
136 100.0000 54.36400 0.000000 46.04350 38.60278 5.229457
137 100.0000 76.60480 0.000000 57.83783 59.19573 8.631683
138 73.84060 100.0000 0.000000 59.02355 81.88765 13.28748
139 80.29270 100.0000 30.70610 64.43241 84.74744 21.42789
140 43.36610 100.0000 0.000000 47.26053 75.37005 12.44148
141 0.000000 73.40290 30.93540 22.08691 36.45152 13.56433
142 40.14330 80.07680 31.68820 31.19817 46.53207 15.65021
143 78.22080 88.29580 66.52260 58.26404 68.28155 47.70545
144 100.0000 0.000000 21.51790 36.40956 20.59674 6.794556
145 100.0000 0.000000 35.83500 37.51068 21.07624 12.49340
146 100.0000 28.99050 61.57670 44.73951 28.20199 34.97883
147 51.14510 28.99950 22.13850 11.44500 9.746441 5.236308
148 50.81810 31.37400 33.74220 12.88985 10.99485 10.36694
149 68.00180 36.32910 49.43080 22.96121 17.90032 21.69490
150 1.938000 1.938000 1.938000 0.242831 0.251496 0.325420
151 2.941200 2.941200 2.941200 0.289704 0.296892 0.373397
152 16.42870 12.24390 59.70550 7.288520 4.177468 30.22991
153 19.67950 27.15450 65.17980 10.69262 8.260511 36.82686
154 0.000000 13.94400 33.75180 2.605455 2.173509 9.411335
155 0.000000 32.71840 49.38640 7.470251 7.986134 20.79736
156 30.16560 45.57800 50.64030 13.70688 15.56539 22.83475
157 43.89970 47.82840 88.34310 27.43091 23.14342 74.16620
158 57.63790 48.52260 100.0000 37.18262 28.40928 98.86211
159 70.07160 62.71820 100.0000 48.83321 42.24249 101.1049
160 78.15780 100.0000 100.0000 79.75803 91.53811 107.5449
161 43.46940 55.24250 41.65030 19.04687 23.15626 17.36465
162 55.86650 67.43400 43.10790 29.48886 36.53855 20.38248
163 0.000000 87.20930 0.000000 29.99862 52.16069 8.415600
164 0.000000 100.0000 37.05830 43.81402 73.25015 23.50700
165 0.000000 100.0000 63.39900 48.16295 75.23713 45.93549
166 0.000000 100.0000 81.36340 53.07770 77.48481 71.08543
167 0.000000 19.90840 53.31310 6.016205 4.549536 23.66795
168 0.000000 39.91490 73.54630 14.86131 13.71839 49.61139
169 28.92020 40.35810 73.39050 17.20808 15.19943 49.24129
170 65.73370 63.37360 81.63240 40.15192 38.74591 64.69140
171 66.72700 75.33720 88.11540 49.32664 51.54729 78.29737
172 12.19140 21.93770 12.46780 2.439863 3.267512 2.086230
173 15.17000 32.30430 12.16440 4.456309 6.546623 2.571147
174 27.40230 34.56510 23.77930 7.051841 8.534009 6.019103
175 40.35720 44.00680 54.71030 16.18887 16.38890 26.86093
176 49.97180 45.86590 67.46680 22.18749 20.14057 41.36558
177 0.000000 2.941200 0.000000 0.190577 0.244539 0.220992
178 0.000000 6.097600 0.000000 0.326515 0.472043 0.275819
179 0.000000 9.493700 0.000000 0.491345 0.750184 0.321118
180 0.000000 13.15790 0.000000 0.769337 1.232004 0.392633
181 0.000000 21.42860 0.000000 1.630015 2.754949 0.590001
182 0.000000 26.11940 0.000000 2.407043 4.102447 0.769118
183 11.24920 26.82530 50.54600 6.988032 6.360150 21.65973
184 43.81620 32.97600 51.40810 13.56623 11.48630 22.91828
185 53.50060 35.16700 71.65690 21.64163 16.18471 46.64715
186 13.91340 21.67680 33.79010 3.937998 3.872886 9.592647
187 27.96570 32.69110 47.31270 9.299310 9.037899 19.35538
188 42.04920 56.70460 68.29640 24.49168 26.56273 43.48501
189 58.61230 69.23710 75.12340 38.33035 41.87668 55.72443
190 39.32700 26.07700 11.97960 7.024060 6.557749 2.435458
191 45.88710 49.65890 12.16000 15.16948 18.62007 4.648391
192 56.28040 49.77020 26.83670 19.58440 21.16095 8.878202
193 79.49250 78.28130 26.12100 45.82502 53.70758 13.80519
194 81.94780 89.21980 42.22360 56.93530 69.02103 25.47816
195 30.90970 58.30530 0.000000 14.93536 22.80206 3.475866
196 77.21010 60.97870 0.000000 33.11254 34.64966 4.954565
197 100.0000 100.0000 0.000000 76.36708 91.51616 14.38320
198 100.0000 100.0000 28.38070 77.72506 92.13708 21.22931
199 100.0000 100.0000 51.71140 80.65984 93.50104 36.12582
200 100.0000 100.0000 71.28500 85.08391 95.53033 58.52637
201 69.08600 84.90520 72.63590 52.53759 62.02847 54.80736
202 68.51150 84.54790 89.55640 57.24209 63.77654 81.70834
203 82.43810 88.37970 100.0000 71.90863 74.69188 105.4414
204 6.097600 0.000000 0.000000 0.292650 0.216711 0.202090
205 9.493700 0.000000 0.000000 0.430114 0.304439 0.228049
206 13.15790 0.000000 0.000000 0.653682 0.434743 0.250184
207 30.40380 39.82010 0.000000 7.992653 10.78142 1.690069
208 43.88090 39.79920 28.42450 12.23871 13.03691 8.123465
209 47.05100 70.52200 61.06510 31.39455 39.17379 36.80738
210 16.19310 38.27780 85.95330 19.06728 15.24005 69.21095
211 15.47590 52.23060 86.14750 23.51563 22.95020 70.78212
212 34.81380 60.79330 100.0000 35.63487 33.93735 99.67409
213 59.53990 74.59690 100.0000 50.75903 51.24906 102.2080
214 100.0000 0.000000 0.000000 35.50425 20.17437 2.202435
215 100.0000 30.92930 26.63700 40.07532 26.64232 9.146967
216 100.0000 67.05590 29.04390 53.67801 50.10063 14.21687
217 50.30230 15.21370 85.00030 21.18449 11.59050 66.46126
218 55.74670 56.61130 85.84110 33.98934 31.07212 71.29231
219 16.44740 75.16430 62.73520 28.91660 40.94252 39.40001
220 37.89970 76.17390 86.22470 39.56559 46.84668 74.87567
221 0.000000 0.000000 0.000000 0.112524 0.111331 0.186057
222 21.42860 0.000000 0.000000 1.381664 0.842672 0.282087
223 32.06520 15.46810 0.000000 3.873515 3.234285 0.604106
224 45.82480 15.95310 11.07120 7.484566 5.327031 2.009135
225 34.47470 0.000000 27.53400 4.597552 2.530795 6.265236
226 34.87140 13.22420 38.09900 6.401043 4.169038 11.84266
227 64.77750 22.23970 76.90150 25.27091 15.26095 53.98145
228 69.38500 36.59900 90.18260 34.64830 23.27293 77.35540
229 83.10630 51.26470 100.0000 51.11774 37.52700 99.66409
230 25.00640 20.43410 42.32950 6.038292 4.795580 14.92162
231 48.73780 22.06170 52.81230 13.05043 8.860432 23.58077
232 62.03950 36.25060 58.70340 22.16437 17.11257 30.91472
233 69.33570 47.54220 82.44810 35.11127 27.53813 64.73632
234 86.77670 47.19540 84.35940 45.96068 33.70446 68.81823
235 24.57560 0.000000 41.87140 4.388203 2.229206 13.95350
236 48.50720 0.000000 48.30140 10.61548 5.645339 19.21554
237 68.77400 0.000000 55.97980 20.17220 10.89182 27.19650
238 79.39610 0.000000 73.91050 30.13660 16.04218 49.36163
239 85.62690 25.04150 83.64280 39.30114 23.50072 65.95264
240 100.0000 31.19150 82.44390 51.07762 31.66049 64.94613
241 86.34780 36.03470 14.71280 30.43953 22.50374 5.639067
242 90.32800 48.84900 15.16930 36.86751 30.62561 7.074539
243 100.0000 51.70900 30.72890 46.44181 37.30259 12.67543
244 100.0000 52.93870 49.27170 49.29009 39.24186 24.80156
245 100.0000 67.13170 68.56820 60.22779 53.12506 47.27465
246 87.20930 0.000000 0.000000 25.75353 14.63178 1.612585
247 86.39210 19.03690 13.07400 27.31600 17.23525 4.069080
248 0.000000 0.000000 0.000000 0.112501 0.111268 0.186029
249 0.000000 0.000000 2.941200 0.144490 0.126338 0.349806
250 0.000000 0.000000 6.097600 0.200502 0.152384 0.631152
251 0.000000 0.000000 9.493700 0.270376 0.184779 0.986194
252 53.44080 42.92450 38.74500 17.22305 16.83491 14.32379
253 58.83990 67.78570 57.00970 33.15151 38.56487 31.97941
254 72.91740 100.0000 57.71560 64.09492 84.19947 40.78491
255 100.0000 100.0000 86.49890 89.88327 97.71531 82.64479
256 52.04920 23.12470 0.000000 10.10889 7.832322 1.113816
257 66.43860 33.07720 14.11090 18.02692 14.47550 4.087940
258 87.81080 59.17390 12.61970 39.63744 37.22586 7.590260
259 87.99540 71.42760 28.11160 47.13027 49.21003 13.85968
260 20.10040 65.04420 18.91550 17.58295 28.26209 7.987687
261 17.82260 84.65600 53.20340 33.82334 51.71607 31.40345
262 26.98890 87.66820 65.22220 39.73820 57.66304 44.46182
263 75.96910 78.73440 0.000000 42.94136 52.58172 7.910174
264 100.0000 84.15600 26.03070 64.45692 69.20114 16.29620
265 53.98010 60.25750 0.000000 22.24517 28.33522 4.143371
266 62.18300 62.86940 20.64060 27.55196 32.49220 9.087301
267 72.61770 69.66650 37.99210 37.78798 42.79074 18.08741
268 100.0000 85.33920 56.00650 69.28231 72.46277 36.89754
269 71.12830 56.20070 18.18200 28.04763 28.96511 7.556040
270 73.27400 57.22860 37.77940 31.64238 31.45263 16.17521
271 90.90510 62.20370 39.29820 45.11474 41.93746 18.24030
272 84.53110 50.61070 65.85620 40.12629 32.31035 40.81876
273 100.0000 51.55420 66.55210 52.16637 39.64735 42.73604
274 79.81850 21.71970 38.58110 25.09896 16.02989 13.49337
275 100.0000 54.23650 82.21820 57.94868 43.78736 66.48606
276 100.0000 64.37010 100.0000 69.66436 55.38439 102.5221
277 72.87510 51.54020 69.80320 34.52123 29.32566 45.90156
278 84.69130 64.34010 69.45150 47.54429 43.97891 47.38667
279 0.000000 100.0000 0.000000 41.58466 72.21770 11.96257
280 32.60690 100.0000 26.87670 45.89422 74.49747 18.40614
281 39.90080 100.0000 52.41820 50.65921 76.83319 34.74740
282 20.27650 49.47180 15.36100 10.13788 15.59481 4.876697
283 40.75420 62.37570 27.99080 20.25738 27.91032 10.56767
284 85.73460 71.78190 47.33970 48.46794 50.02041 25.64107
285 100.0000 72.85810 56.84360 61.04492 58.00865 34.74017
286 31.25000 0.000000 0.000000 2.851948 1.672331 0.355893
287 34.08700 0.000000 0.000000 3.432356 2.000385 0.385770
288 35.94710 0.000000 58.28910 9.346087 4.735776 28.69698
289 36.06990 31.67680 60.29640 13.23369 10.77868 32.24644
290 40.86230 71.82660 73.00660 33.52567 40.92951 52.23176
291 49.47780 86.59490 72.75130 45.85895 59.73738 54.85933
292 0.000000 42.43480 33.44120 7.925673 11.54085 10.57091
293 0.000000 50.78510 58.37380 14.53290 18.14577 30.83651
294 0.000000 55.14440 76.20450 20.87745 23.45539 54.18272
295 0.000000 64.73020 100.0000 34.28949 35.53958 99.91201
296 26.16140 74.40180 100.0000 41.64126 46.18210 101.6989
297 56.47820 87.62840 100.0000 58.71445 66.60956 104.8535
298 19.22320 50.22490 66.19990 17.05835 19.00925 40.01690
299 37.13860 54.58590 78.87100 25.41102 25.50602 58.40359
300 54.02540 88.27790 87.42630 53.33997 64.93376 78.80242
301 63.71270 100.0000 88.56070 67.86176 85.44770 83.68160
302 0.000000 27.13660 16.75930 3.035836 4.635464 3.144770
303 15.44170 33.30480 27.15890 5.602723 7.459423 6.954810
304 19.31920 62.83040 69.24760 23.57190 29.32069 45.72619
305 100.0000 100.0000 100.0000 95.01257 99.99131 108.8220
306 18.60190 41.88460 25.20550 8.054343 11.54516 6.989753
307 41.54760 49.89220 26.61610 14.73342 18.30641 8.626284
308 57.14070 54.32230 42.30190 23.62177 25.50004 18.05163
309 0.000000 0.000000 0.000000 0.112541 0.111293 0.186310
310 9.658200 11.50980 20.40830 1.594523 1.467448 3.717843
311 19.04970 11.18800 27.51010 2.800140 2.088893 6.310193
312 57.33100 52.49970 63.27430 26.34210 25.39325 36.79047
313 90.93770 64.20980 82.25910 55.77679 48.18105 67.19003
314 100.0000 75.69860 84.40330 70.00505 64.10102 72.72785
315 50.00000 0.000000 0.000000 7.635973 4.366120 0.597151
316 57.69230 0.000000 0.000000 10.29886 5.873812 0.741754
317 71.33700 0.000000 0.000000 16.25239 9.237915 1.055642
318 76.08700 0.000000 0.000000 18.66895 10.60217 1.201500
319 78.89500 29.95980 27.77650 24.65106 17.39917 8.229226
320 86.81280 37.12010 68.73170 38.14159 26.33201 43.29782
321 0.000000 0.000000 0.000000 0.112485 0.111328 0.185951
322 0.957900 0.957900 0.957900 0.175190 0.179326 0.250740
323 0.000000 16.31410 23.98720 1.927468 2.133840 4.977581
324 15.71200 39.91300 51.33350 10.30432 11.67729 23.03366
325 19.12750 39.85590 62.36580 12.90597 12.90699 34.60941
326 21.16760 63.57770 61.56720 22.20733 29.29899 35.65118
327 0.000000 57.26080 52.38510 16.06138 22.36983 25.46166
328 0.000000 80.21960 57.56340 30.54828 46.17817 34.85389
329 0.000000 78.39730 72.30790 32.60644 45.31477 52.19046
330 28.84830 84.22220 77.57600 40.67627 54.62371 61.44161
331 17.32670 66.20070 83.85410 29.74040 34.66870 68.62065
332 45.35070 68.33630 86.66610 37.04671 40.00597 73.96813
333 0.000000 33.06350 36.21570 5.682550 7.313805 11.12417
334 30.79410 42.97500 37.93230 11.20715 13.51141 13.35627
335 59.04310 82.28690 44.41050 40.65551 53.86314 24.41182
336 81.79900 84.25570 53.91850 54.89148 63.22494 33.06474
337 100.0000 83.75950 76.98230 73.34427 72.93252 62.56619
338 32.07760 27.07010 17.93180 6.012579 6.271388 3.737950
339 52.79700 71.01350 19.66980 28.38474 38.56473 9.961189
340 52.27570 79.60350 57.78570 38.27877 50.01364 35.06672
341 64.77410 81.15080 78.11230 49.28555 56.69095 61.87584
342 100.0000 0.000000 50.46370 39.62946 22.05815 23.15004
343 100.0000 0.000000 65.37160 42.68728 23.44010 38.73178
344 2.941200 0.000000 0.000000 0.181007 0.149257 0.188172
345 18.85780 0.000000 12.33090 1.325771 0.767563 1.462024
346 43.04390 0.000000 100.0000 24.08842 11.54189 96.16345
347 74.12410 0.000000 100.0000 36.29120 18.43536 96.56281
348 16.52790 11.04610 0.000000 1.373006 1.373156 0.396488
349 21.13820 20.09420 8.311000 2.835834 3.195332 1.339434
350 35.53660 23.13130 23.16110 6.295371 5.546729 5.040441
351 49.35330 25.56990 42.86750 12.29027 9.189822 15.22957
352 85.27200 29.48270 51.28400 31.56596 20.98553 23.84818
353 17.12330 0.000000 0.000000 0.959506 0.603831 0.260504
354 17.89000 7.724000 17.72730 1.748108 1.301345 2.795764
355 28.43950 16.69360 26.49750 4.479359 3.592417 6.214540
356 33.84430 28.60750 38.21700 8.271577 7.640601 12.22793
357 48.63020 36.48530 44.21140 14.60349 13.24692 17.29862
358 72.62430 69.00880 55.96430 40.18861 43.32976 32.31907
359 82.78600 70.02200 64.44440 48.34144 48.48848 41.52994
360 36.57410 0.000000 16.32310 4.403055 2.497681 2.569715
361 44.27600 13.81920 19.60610 7.237780 4.911354 3.854421
362 26.11940 0.000000 0.000000 2.084730 1.239971 0.315574
363 26.46630 9.370400 15.83620 2.806957 2.004584 2.336904
364 41.37490 16.32870 28.79920 7.285915 5.149880 7.097762
365 57.11900 16.08520 30.68830 12.65816 8.181465 8.149322
366 59.95540 100.0000 35.31090 54.89986 79.39913 23.46008
367 43.80750 77.45540 0.000000 28.71064 43.31591 6.686234
368 61.13830 85.66690 16.69510 41.17674 56.91129 12.43706
369 33.78510 35.57700 13.81460 7.937462 9.444839 3.326588
370 55.02440 37.24910 13.26610 14.15474 13.43957 3.857203
371 65.97160 41.08410 30.94400 21.03985 18.50120 10.23727
372 84.89430 46.25100 35.75330 33.66558 27.57629 13.84407
373 66.32650 0.000000 0.000000 13.95611 7.930600 0.923879
374 73.97690 25.11740 0.000000 19.95188 13.83131 1.727168
375 75.41430 42.08110 0.000000 24.36705 20.99607 2.806174
376 78.87630 60.91410 85.93000 47.18983 41.18578 72.94158
377 0.000000 15.40630 14.30400 1.263747 1.710253 2.048176
378 11.24390 24.45670 25.01690 3.427141 4.191996 5.621552
379 16.43260 30.69230 37.35890 6.046784 6.798969 11.88766
380 68.30620 37.06130 39.23030 21.82487 17.55846 14.54479
381 86.88740 40.43650 44.29040 34.52304 25.83320 19.07719
382 64.22030 18.93380 13.31190 14.58350 9.771252 3.010144
383 63.61100 21.07100 25.22660 15.06057 10.29603 6.239870
384 68.56590 19.27100 44.17510 19.44665 12.31745 16.93227
385 71.09250 22.34740 58.61390 23.44509 14.80982 29.97958
386 73.49130 31.52980 71.93060 29.53400 19.68726 46.80845
387 75.89100 67.47340 77.93730 46.34478 45.07180 60.04480
388 83.48640 86.06570 75.29090 62.27521 68.19558 59.77396
389 95.52850 95.52850 95.52850 85.76090 90.34226 98.17597
390 100.0000 100.0000 100.0000 95.01237 99.98288 108.7929
391 65.95400 50.43070 55.43880 27.56306 25.43974 28.43423
392 81.72910 51.30650 55.07860 36.29464 30.79383 28.56803
393 54.35120 0.000000 32.83820 10.77739 5.948488 9.324162
394 75.04730 0.000000 32.10110 19.53093 10.91253 9.291878
395 100.0000 0.000000 81.76980 47.40937 25.59698 62.67862
396 100.0000 0.000000 100.0000 54.33001 28.64435 97.93342
397 100.0000 38.63710 100.0000 59.70283 37.96195 99.80460
398 0.000000 0.000000 13.15790 0.410538 0.249737 1.693898
399 0.000000 0.000000 17.12330 0.576985 0.326738 2.536249
400 17.55030 0.000000 23.49520 1.813171 0.976993 4.507294
401 22.76700 86.31840 41.74040 33.79820 53.24721 22.84665
402 44.31810 100.0000 72.14050 56.08292 79.41417 57.29960
403 74.39550 100.0000 75.31230 68.83590 86.39653 62.75834
404 0.000000 47.75370 21.56030 8.637660 13.95888 6.277655
405 19.14220 51.28790 38.84230 12.49720 17.47686 14.64225
406 70.46980 54.15530 48.77570 30.00052 28.70635 22.75417
407 87.18170 59.64690 51.97970 43.13137 39.08166 27.28284
408 90.68340 83.82440 66.26670 63.26381 67.43990 46.85385
409 20.51650 58.11250 32.00270 14.93987 22.46462 11.89518
410 32.39820 72.88490 45.09430 26.51031 38.43640 22.27847
411 85.55900 100.0000 88.25950 79.60744 91.95512 84.01213
412 100.0000 100.0000 100.0000 94.99315 99.96480 108.7923
413 30.75970 0.000000 74.83900 12.28147 5.955508 49.56829
414 57.88870 0.000000 75.52940 20.39705 10.47498 51.81544
415 77.74030 8.611500 87.17340 33.65801 18.07153 70.95295
416 90.85190 80.23580 87.38890 67.16494 65.98018 78.25522
417 100.0000 83.27960 100.0000 81.26026 75.87122 105.0343
END_DATA
CAL    

DESCRIPTOR "Argyll Device Calibration State"
ORIGINATOR "Argyll dispread"
CREATED "Tue May 26 13:04:45 2020"
DEVICE_CLASS "DISPLAY"
COLOR_REP "RGB"

BEGIN_ARGYLL_DISPCAL_ARGS
-v2 -ql -m -w0.3127,0.329 -gs -f1.0 -k0 -A4.0 -d1 -c1 -yn -P0.475468687675,0.649334945586,2.11251980983 -F -X "i1 DisplayPro, ColorMunki Display & Dell, DELL U2718Q (i1 Pro).ccmx"
END_ARGYLL_DISPCAL_ARGS


NUMBER_OF_FIELDS 4
BEGIN_DATA_FORMAT
RGB_I RGB_R RGB_G RGB_B
END_DATA_FORMAT

NUMBER_OF_SETS 256
BEGIN_DATA
0.00000000 0.00000000 0.00000000 0.00000000
0.00392157 0.00521351 0.00505893 0.00527818
0.00784314 0.01036590 0.01005540 0.01046210
0.01176470 0.01545830 0.01499060 0.01555420
0.01568630 0.02049160 0.01986560 0.02055700
0.01960780 0.02546700 0.02468150 0.02547270
0.02352940 0.03038550 0.02943950 0.03030370
0.02745100 0.03524800 0.03413960 0.03504990
0.03137250 0.04003850 0.03876170 0.03969100
0.03529410 0.04471640 0.04328100 0.04420390
0.03921570 0.04926790 0.04768080 0.04857780
0.04313730 0.05369320 0.05196600 0.05282480
0.04705880 0.05799980 0.05614010 0.05695250
0.05098040 0.06219180 0.06020270 0.06096160
0.05490200 0.06627360 0.06416420 0.06487000
0.05882350 0.07027530 0.06805070 0.06869870
0.06274510 0.07422850 0.07188510 0.07246450
0.06666670 0.07815030 0.07568010 0.07618560
0.07058820 0.08205580 0.07944640 0.07988280
0.07450980 0.08596150 0.08320550 0.08357490
0.07843140 0.08989110 0.08697350 0.08727620
0.08235290 0.09386210 0.09076250 0.09099390
0.08627450 0.09788390 0.09457310 0.09472790
0.09019610 0.10194800 0.09840090 0.09846780
0.09411760 0.10604900 0.10224000 0.10220100
0.09803920 0.11017600 0.10607800 0.10592200
0.10196100 0.11430000 0.10990200 0.10963400
0.10588200 0.11840100 0.11371000 0.11334100
0.10980400 0.12247800 0.11750000 0.11703900
0.11372500 0.12653200 0.12127100 0.12072500
0.11764700 0.13056000 0.12501300 0.12440000
0.12156900 0.13455400 0.12871700 0.12805700
0.12549000 0.13848200 0.13236600 0.13168800
0.12941200 0.14233300 0.13596200 0.13529000
0.13333300 0.14612500 0.13952900 0.13886500
0.13725500 0.14989300 0.14307500 0.14242500
0.14117600 0.15364500 0.14660400 0.14597400
0.14509800 0.15738500 0.15011800 0.14952000
0.14902000 0.16111900 0.15361300 0.15305600
0.15294100 0.16485100 0.15709300 0.15658200
0.15686300 0.16858000 0.16055800 0.16010400
0.16078400 0.17228400 0.16400300 0.16361800
0.16470600 0.17595800 0.16742700 0.16711000
0.16862700 0.17960300 0.17083100 0.17058100
0.17254900 0.18320600 0.17420500 0.17403400
0.17647100 0.18676000 0.17754400 0.17746600
0.18039200 0.19026100 0.18085000 0.18087700
0.18431400 0.19371700 0.18412400 0.18427200
0.18823500 0.19712100 0.18736400 0.18765200
0.19215700 0.20047300 0.19057500 0.19101200
0.19607800 0.20380400 0.19376800 0.19435400
0.20000000 0.20713300 0.19694900 0.19768800
0.20392200 0.21046200 0.20011700 0.20101500
0.20784300 0.21379300 0.20327300 0.20433500
0.21176500 0.21712800 0.20642200 0.20765000
0.21568600 0.22046900 0.20956400 0.21096400
0.21960800 0.22381200 0.21269800 0.21427300
0.22352900 0.22717300 0.21583500 0.21757600
0.22745100 0.23055200 0.21897200 0.22087100
0.23137300 0.23395200 0.22211500 0.22416000
0.23529400 0.23737900 0.22526500 0.22745400
0.23921600 0.24084200 0.22842500 0.23075100
0.24313700 0.24434500 0.23159600 0.23405800
0.24705900 0.24789000 0.23477900 0.23737400
0.25098000 0.25147900 0.23798400 0.24070500
0.25490200 0.25510100 0.24121300 0.24405500
0.25882400 0.25875200 0.24446400 0.24741800
0.26274500 0.26243000 0.24773900 0.25079500
0.26666700 0.26613700 0.25103900 0.25418300
0.27058800 0.26986600 0.25436300 0.25758800
0.27451000 0.27359100 0.25769900 0.26100600
0.27843100 0.27731800 0.26104800 0.26443400
0.28235300 0.28105600 0.26441800 0.26787500
0.28627500 0.28480500 0.26780800 0.27132700
0.29019600 0.28855900 0.27121400 0.27478500
0.29411800 0.29232100 0.27463300 0.27824700
0.29803900 0.29609100 0.27806400 0.28170500
0.30196100 0.29986800 0.28150300 0.28515800
0.30588200 0.30365200 0.28494800 0.28861000
0.30980400 0.30743500 0.28839700 0.29205400
0.31372500 0.31121500 0.29184400 0.29548100
0.31764700 0.31499400 0.29528300 0.29888500
0.32156900 0.31878500 0.29871300 0.30226000
0.32549000 0.32258400 0.30213900 0.30561600
0.32941200 0.32638100 0.30556000 0.30895100
0.33333300 0.33017000 0.30897000 0.31226500
0.33725500 0.33395500 0.31236800 0.31555400
0.34117600 0.33772700 0.31576200 0.31882000
0.34509800 0.34148200 0.31915400 0.32207000
0.34902000 0.34522000 0.32253900 0.32531300
0.35294100 0.34894100 0.32591600 0.32854500
0.35686300 0.35264900 0.32928700 0.33176700
0.36078400 0.35634800 0.33265800 0.33497800
0.36470600 0.36004700 0.33603400 0.33818300
0.36862700 0.36375000 0.33941800 0.34138400
0.37254900 0.36745500 0.34282000 0.34458400
0.37647100 0.37116100 0.34623600 0.34778800
0.38039200 0.37487600 0.34966100 0.35099500
0.38431400 0.37859800 0.35309500 0.35420700
0.38823500 0.38232600 0.35653800 0.35742200
0.39215700 0.38605600 0.35998400 0.36064700
0.39607800 0.38979500 0.36342800 0.36387900
0.40000000 0.39354300 0.36687200 0.36711900
0.40392200 0.39728200 0.37031900 0.37036200
0.40784300 0.40100600 0.37376200 0.37361700
0.41176500 0.40469700 0.37718800 0.37688700
0.41568600 0.40833800 0.38059500 0.38016400
0.41960800 0.41192300 0.38397100 0.38344100
0.42352900 0.41544200 0.38731000 0.38672000
0.42745100 0.41889700 0.39061000 0.39000100
0.43137300 0.42230500 0.39386900 0.39328500
0.43529400 0.42567000 0.39709500 0.39656500
0.43921600 0.42898800 0.40030300 0.39984000
0.44313700 0.43227900 0.40349200 0.40311600
0.44705900 0.43556100 0.40666500 0.40640500
0.45098000 0.43884200 0.40983700 0.40970400
0.45490200 0.44213500 0.41301500 0.41301500
0.45882400 0.44544200 0.41620600 0.41634500
0.46274500 0.44877700 0.41941500 0.41969500
0.46666700 0.45214300 0.42264200 0.42307200
0.47058800 0.45553900 0.42589800 0.42648700
0.47451000 0.45897400 0.42918000 0.42993300
0.47843100 0.46245500 0.43249400 0.43341400
0.48235300 0.46598500 0.43584500 0.43693000
0.48627500 0.46956800 0.43923000 0.44048600
0.49019600 0.47322100 0.44264200 0.44408300
0.49411800 0.47695600 0.44609100 0.44771500
0.49803900 0.48076900 0.44958400 0.45137800
0.50196100 0.48465400 0.45311900 0.45508000
0.50588200 0.48860900 0.45669300 0.45882300
0.50980400 0.49263500 0.46030400 0.46260100
0.51372500 0.49673600 0.46395600 0.46640900
0.51764700 0.50091400 0.46765100 0.47024500
0.52156900 0.50510700 0.47139900 0.47411100
0.52549000 0.50929200 0.47519300 0.47800800
0.52941200 0.51347100 0.47900400 0.48194600
0.53333300 0.51764200 0.48282900 0.48586900
0.53725500 0.52180700 0.48666800 0.48974400
0.54117600 0.52597500 0.49052200 0.49357400
0.54509800 0.53015800 0.49438700 0.49735900
0.54902000 0.53434600 0.49826800 0.50109900
0.55294100 0.53850600 0.50217000 0.50479900
0.55686300 0.54261500 0.50609100 0.50846700
0.56078400 0.54667900 0.51001000 0.51210600
0.56470600 0.55070100 0.51391600 0.51571300
0.56862700 0.55467500 0.51780800 0.51928400
0.57254900 0.55860200 0.52168100 0.52283100
0.57647100 0.56246500 0.52553600 0.52635800
0.58039200 0.56626800 0.52937400 0.52986900
0.58431400 0.57001800 0.53319000 0.53336600
0.58823500 0.57371500 0.53699000 0.53685700
0.59215700 0.57736800 0.54077000 0.54035200
0.59607800 0.58096200 0.54453100 0.54386200
0.60000000 0.58449700 0.54826600 0.54739100
0.60392200 0.58799100 0.55196900 0.55093300
0.60784300 0.59145000 0.55565300 0.55448000
0.61176500 0.59488000 0.55932800 0.55802800
0.61568600 0.59828500 0.56299400 0.56157600
0.61960800 0.60167100 0.56665200 0.56513900
0.62352900 0.60507000 0.57030900 0.56872000
0.62745100 0.60849700 0.57398200 0.57231700
0.63137300 0.61194400 0.57766900 0.57593400
0.63529400 0.61541700 0.58136900 0.57957800
0.63921600 0.61891900 0.58507900 0.58325700
0.64313700 0.62245600 0.58879900 0.58697000
0.64705900 0.62603700 0.59253500 0.59071700
0.65098000 0.62966100 0.59628200 0.59449300
0.65490200 0.63332200 0.60003700 0.59829300
0.65882400 0.63701500 0.60379900 0.60212800
0.66274500 0.64075400 0.60757900 0.60599800
0.66666700 0.64454500 0.61138700 0.60989300
0.67058800 0.64839700 0.61523000 0.61380500
0.67451000 0.65230700 0.61910900 0.61773900
0.67843100 0.65626700 0.62301200 0.62170500
0.68235300 0.66025800 0.62693400 0.62571300
0.68627500 0.66427900 0.63087500 0.62976300
0.69019600 0.66832900 0.63482300 0.63384400
0.69411800 0.67236900 0.63875200 0.63795100
0.69803900 0.67638200 0.64265500 0.64208300
0.70196100 0.68036600 0.64652300 0.64620700
0.70588200 0.68430600 0.65034400 0.65029900
0.70980400 0.68819300 0.65412000 0.65435400
0.71372500 0.69204000 0.65786600 0.65836200
0.71764700 0.69586400 0.66159100 0.66231900
0.72156900 0.69967800 0.66530200 0.66624300
0.72549000 0.70348700 0.66899400 0.67015700
0.72941200 0.70728000 0.67266400 0.67407800
0.73333300 0.71105800 0.67631000 0.67799300
0.73725500 0.71482400 0.67995100 0.68188900
0.74117600 0.71860900 0.68359800 0.68576400
0.74509800 0.72243000 0.68725400 0.68962200
0.74902000 0.72629300 0.69091100 0.69347600
0.75294100 0.73019300 0.69456300 0.69732600
0.75686300 0.73412400 0.69822300 0.70116900
0.76078400 0.73810300 0.70189800 0.70500500
0.76470600 0.74213600 0.70558200 0.70883800
0.76862700 0.74622200 0.70927800 0.71267100
0.77254900 0.75037200 0.71299800 0.71650100
0.77647100 0.75458200 0.71674700 0.72033100
0.78039200 0.75883500 0.72052500 0.72416100
0.78431400 0.76313600 0.72433400 0.72799500
0.78823500 0.76747800 0.72816800 0.73183300
0.79215700 0.77185300 0.73202400 0.73567200
0.79607800 0.77626900 0.73589800 0.73950600
0.80000000 0.78071400 0.73978500 0.74332700
0.80392200 0.78516400 0.74368100 0.74712500
0.80784300 0.78963000 0.74760000 0.75090300
0.81176500 0.79412800 0.75154800 0.75467400
0.81568600 0.79865600 0.75551400 0.75844800
0.81960800 0.80320100 0.75949200 0.76223600
0.82352900 0.80772400 0.76346300 0.76603600
0.82745100 0.81221700 0.76742200 0.76984600
0.83137300 0.81668900 0.77137200 0.77366800
0.83529400 0.82117200 0.77532200 0.77750500
0.83921600 0.82567700 0.77928500 0.78135200
0.84313700 0.83019900 0.78325200 0.78522600
0.84705900 0.83473200 0.78722100 0.78914200
0.85098000 0.83925300 0.79119000 0.79310400
0.85490200 0.84374300 0.79515400 0.79710500
0.85882400 0.84819900 0.79910900 0.80114300
0.86274500 0.85263200 0.80305500 0.80520700
0.86666700 0.85703300 0.80700100 0.80928400
0.87058800 0.86140100 0.81094700 0.81337000
0.87451000 0.86572900 0.81489200 0.81747300
0.87843100 0.87001800 0.81882800 0.82161100
0.88235300 0.87430200 0.82275300 0.82577700
0.88627500 0.87858900 0.82669100 0.82996000
0.89019600 0.88287600 0.83064700 0.83415400
0.89411800 0.88716000 0.83461400 0.83836600
0.89803900 0.89142900 0.83859600 0.84261200
0.90196100 0.89570300 0.84258900 0.84689100
0.90588200 0.89997100 0.84660600 0.85120700
0.90980400 0.90423400 0.85064100 0.85555600
0.91372500 0.90848600 0.85469100 0.85993400
0.91764700 0.91273000 0.85875300 0.86433600
0.92156900 0.91695700 0.86282800 0.86875800
0.92549000 0.92117400 0.86690600 0.87318500
0.92941200 0.92539700 0.87099000 0.87762400
0.93333300 0.92962700 0.87509400 0.88207500
0.93725500 0.93386400 0.87921300 0.88655300
0.94117600 0.93808600 0.88335100 0.89105700
0.94509800 0.94228400 0.88749800 0.89557400
0.94902000 0.94647400 0.89164600 0.90010700
0.95294100 0.95066300 0.89580200 0.90466000
0.95686300 0.95484700 0.89996700 0.90924900
0.96078400 0.95902000 0.90414400 0.91386900
0.96470600 0.96318800 0.90833200 0.91851600
0.96862700 0.96735200 0.91253500 0.92318500
0.97254900 0.97150800 0.91675000 0.92788200
0.97647100 0.97565500 0.92097400 0.93260600
0.98039200 0.97979500 0.92520500 0.93735300
0.98431400 0.98392700 0.92944600 0.94212200
0.98823500 0.98805100 0.93369400 0.94691400
0.99215700 0.99216800 0.93795100 0.95172900
0.99607800 0.99627700 0.94221700 0.95656600
1.00000000 1.00000000 0.94649100 0.96142700
END_DATA
