CTI3   

DESCRIPTOR "Argyll Calibration Target chart information 3"
ORIGINATOR "Argyll dispread"
CREATED "Tue May 26 13:04:45 2020"
DEVICE_CLASS "DISPLAY"
SINGLE_DIM_STEPS "17"
COMP_GREY_STEPS "49"
DARK_REGION_EMPHASIS "1.6"
COLOR_REP "RGB_XYZ"
TARGET_INSTRUMENT "X-Rite i1 DisplayPro, ColorMunki Display"
DISPLAY_TYPE_REFRESH "YES"
INSTRUMENT_TYPE_SPECTRAL "NO"
LUMINANCE_XYZ_CDM2 "371.829794 391.232405 426.418188"
NORMALIZED_TO_Y_100 "YES"
VIDEO_LUT_CALIBRATION_POSSIBLE "YES"

BEGIN_ARGYLL_COLPROF_ARGS
-v -qh -aX -bn -C "No copyright. Created with DisplayCAL 3.8.9.3 and ArgyllCMS 2.1.2" -M "DELL U2718Q" -A "Dell, Inc."
END_ARGYLL_COLPROF_ARGS

OBSERVER "1931_2"
USE_BLACK_POINT_COMPENSATION "NO"
BLACK_POINT_CORRECTION "0.0"
HIRES_B2A "YES"
HIRES_B2A_SIZE "-1"
SMOOTH_B2A "YES"
PATCH_SEQUENCE "OPTIMIZE_DISPLAY_RESPONSE_DELAY"

NUMBER_OF_FIELDS 7
BEGIN_DATA_FORMAT
SAMPLE_ID RGB_R RGB_G RGB_B XYZ_X XYZ_Y XYZ_Z
END_DATA_FORMAT

NUMBER_OF_SETS 417
BEGIN_DATA
1 100.0000 100.0000 100.0000 95.04064 100.0000 108.9936
2 1.960800 1.960800 1.960800 0.237921 0.250853 0.282553
3 3.921600 3.921600 3.921600 0.372188 0.393425 0.445907
4 5.882400 5.882400 5.882400 0.524964 0.558255 0.619892
5 9.803900 9.803900 9.803900 0.981632 1.033123 1.169273
6 13.72600 13.72600 13.72600 1.655963 1.745597 2.008658
7 17.64700 17.64700 17.64700 2.528753 2.664634 3.049164
8 21.56900 21.56900 21.56900 3.620196 3.793870 4.492966
9 25.49000 25.49000 25.49000 5.086514 5.309697 5.904954
10 29.41200 29.41200 29.41200 6.660054 7.047145 7.735349
11 33.33300 33.33300 33.33300 8.591389 9.061185 9.867139
12 37.25500 37.25500 37.25500 10.90751 11.37735 12.52257
13 41.17600 41.17600 41.17600 13.35458 14.02645 15.22274
14 45.09800 45.09800 45.09800 15.98808 16.77153 18.32480
15 49.02000 49.02000 49.02000 19.23090 20.22414 22.08310
16 52.94100 52.94100 52.94100 22.79626 24.04306 26.02671
17 56.86300 56.86300 56.86300 26.73102 28.17712 30.38058
18 60.78400 60.78400 60.78400 30.93685 32.69438 35.26539
19 64.70600 64.70600 64.70600 35.45442 37.41147 40.66966
20 68.62700 68.62700 68.62700 40.53975 42.72619 46.15236
21 72.54900 72.54900 72.54900 46.04013 48.55129 52.77105
22 76.47100 76.47100 76.47100 51.39136 54.25074 59.15699
23 80.39200 80.39200 80.39200 58.12216 61.23458 66.21446
24 84.31400 84.31400 84.31400 64.43945 67.85866 74.06226
25 88.23500 88.23500 88.23500 71.28812 75.06053 81.50162
26 92.15700 92.15700 92.15700 78.39772 82.41281 90.68954
27 96.07800 96.07800 96.07800 86.60902 91.24855 99.25025
28 0.000000 17.12330 0.000000 1.143654 1.890041 0.478235
29 21.05490 23.54570 0.000000 3.159141 3.959291 0.729773
30 40.35650 30.49360 0.000000 7.792032 7.974640 1.226301
31 56.85870 45.05770 0.000000 16.86102 17.69668 2.531389
32 74.32640 47.72070 22.40360 26.56100 24.08358 7.882291
33 26.28740 13.39770 8.511500 2.850235 2.387367 1.236627
34 28.54730 14.81970 50.85940 7.342392 4.668673 21.75456
35 42.68880 19.46560 64.19720 13.56623 8.492991 35.91465
36 82.62020 26.78270 100.0000 44.09920 25.73895 98.03256
37 84.33650 75.19980 100.0000 64.19852 59.65437 103.1523
38 29.58730 65.73730 50.94750 22.66379 31.28694 25.79260
39 32.86590 100.0000 86.76650 58.04055 80.05715 80.56513
40 43.64160 100.0000 100.0000 65.47896 83.61322 107.1631
41 0.000000 61.23770 40.99460 16.41928 25.16423 17.39803
42 0.000000 71.64360 79.55630 30.71372 39.19410 62.21680
43 0.000000 81.57090 100.0000 44.70690 53.71670 102.9772
44 0.000000 100.0000 100.0000 60.04778 80.59057 106.9436
45 16.35170 87.55600 87.64450 44.84701 59.47865 78.60000
46 24.58050 88.93720 100.0000 51.91185 64.27360 104.9916
47 0.000000 26.87630 100.0000 21.38761 12.86719 96.61732
48 0.000000 47.42060 100.0000 26.43646 21.83577 97.64575
49 0.000000 24.30980 75.34300 11.98189 8.100900 50.87236
50 14.71240 27.69520 88.28750 17.38309 11.36735 72.60571
51 19.74670 13.79330 86.62820 15.26716 8.030934 69.14216
52 35.12880 25.63770 100.0000 24.28396 14.18427 96.68306
53 60.88100 28.95240 100.0000 33.06930 19.87380 97.26432
54 15.29130 45.52690 45.04500 10.90061 14.09423 18.14903
55 36.05590 56.44970 49.98350 19.09748 23.71345 23.80803
56 44.64540 59.16060 60.35710 24.46744 28.04435 34.61042
57 56.18440 94.69490 59.85760 51.95523 71.40346 41.24687
58 0.000000 31.25000 0.000000 3.327994 5.723001 1.016433
59 0.000000 36.88520 0.000000 4.566309 7.874214 1.340700
60 0.000000 43.10350 0.000000 6.366025 11.02756 1.800102
61 0.000000 50.00000 0.000000 8.664607 15.04237 2.394730
62 0.000000 57.69230 0.000000 11.91742 20.73073 3.267542
63 0.000000 66.32650 0.000000 16.34438 28.45121 4.449690
64 0.000000 76.08700 0.000000 22.11153 38.43392 6.135757
65 0.000000 81.68860 0.000000 25.98148 45.18234 7.226627
66 24.65280 82.42320 17.51790 29.08067 47.46774 11.31595
67 28.82400 18.62970 74.65300 13.14640 7.821482 49.48376
68 44.59760 32.95120 84.36190 22.18036 15.44418 66.43078
69 14.57610 8.675700 36.40090 3.130770 1.966298 10.84655
70 55.83750 12.51510 43.74700 13.17771 7.929870 16.16704
71 58.45760 12.11010 61.73440 17.48107 9.952182 33.13080
72 0.000000 0.000000 21.42860 0.861920 0.459419 3.940500
73 0.000000 0.000000 26.11940 1.174440 0.603571 5.533031
74 0.000000 0.000000 31.25000 1.606213 0.802227 7.733322
75 0.000000 0.000000 36.88520 2.189690 1.071852 10.69448
76 0.000000 0.000000 43.10350 2.958188 1.423417 14.59538
77 0.000000 0.000000 50.00000 4.113411 1.954010 20.44144
78 0.000000 0.000000 57.69230 5.445110 2.562729 27.17366
79 0.000000 0.000000 66.32650 7.490078 3.505492 37.54373
80 0.000000 0.000000 76.08700 10.26176 4.775041 51.57982
81 0.000000 0.000000 87.20930 13.81602 6.399137 69.62592
82 0.000000 0.000000 100.0000 18.91974 8.684383 95.54658
83 31.11780 43.66020 100.0000 27.77664 21.21095 98.12260
84 78.18210 0.000000 46.60270 23.51817 12.96341 18.76424
85 86.39850 16.69730 62.14020 32.99863 19.46479 34.31952
86 3.968300 3.968300 3.968300 0.374953 0.395320 0.458739
87 5.020100 5.020100 5.020100 0.461881 0.487644 0.555257
88 6.097600 6.097600 6.097600 0.579790 0.606262 0.694680
89 7.201600 7.201600 7.201600 0.653115 0.682227 0.785091
90 8.333300 8.333300 8.333300 0.784876 0.822472 0.951124
91 9.493700 9.493700 9.493700 0.932793 0.981958 1.114855
92 10.68380 10.68380 10.68380 1.110008 1.166922 1.363985
93 11.90480 11.90480 11.90480 1.322712 1.395820 1.634694
94 13.15790 13.15790 13.15790 1.576398 1.652678 1.969517
95 14.44440 14.44440 14.44440 1.842971 1.936940 2.225898
96 15.76580 15.76580 15.76580 2.073394 2.200648 2.465456
97 17.12330 17.12330 17.12330 2.424922 2.559337 2.953972
98 18.51850 18.51850 18.51850 2.739326 2.902412 3.334846
99 19.95310 19.95310 19.95310 3.213603 3.367359 3.832781
100 21.42860 21.42860 21.42860 3.623617 3.794582 4.507921
101 22.94690 22.94690 22.94690 4.085439 4.303385 4.931427
102 24.50980 24.50980 24.50980 4.533831 4.820489 5.314377
103 26.11940 26.11940 26.11940 5.399912 5.679570 6.284565
104 27.77780 27.77780 27.77780 5.945705 6.254984 6.963416
105 29.48720 29.48720 29.48720 6.654533 7.043618 7.765255
106 31.25000 31.25000 31.25000 7.527128 7.911186 8.796849
107 33.06880 33.06880 33.06880 8.497576 8.899209 9.861727
108 34.94620 34.94620 34.94620 9.356930 9.826693 10.86844
109 36.88520 36.88520 36.88520 10.65762 11.06003 12.22604
110 38.88890 38.88890 38.88890 11.77232 12.36696 13.59219
111 40.96050 40.96050 40.96050 13.10841 13.70016 15.06921
112 43.10350 43.10350 43.10350 14.71270 15.39713 16.76132
113 45.32160 45.32160 45.32160 16.32509 17.09680 18.73967
114 47.61910 47.61910 47.61910 17.94956 18.73181 20.79991
115 50.00000 50.00000 50.00000 20.24923 21.20781 23.35087
116 52.46910 52.46910 52.46910 22.51910 23.70617 25.58891
117 55.03140 55.03140 55.03140 24.69038 26.08091 28.25154
118 57.69230 57.69230 57.69230 27.57484 29.08686 31.44921
119 60.45750 60.45750 60.45750 30.63444 32.22610 35.19439
120 63.33330 63.33330 63.33330 33.50853 35.26566 38.45149
121 66.32650 66.32650 66.32650 37.46095 39.47014 42.80975
122 69.44440 69.44440 69.44440 41.57237 43.83304 47.71736
123 72.69500 72.69500 72.69500 46.00424 48.51542 52.72180
124 76.08700 76.08700 76.08700 50.87119 53.66844 58.51613
125 79.62960 79.62960 79.62960 56.62339 59.74127 64.71496
126 83.33330 83.33330 83.33330 62.63491 65.92763 71.74450
127 87.20930 87.20930 87.20930 69.17153 72.87881 79.34975
128 91.26980 91.26980 91.26980 77.00486 81.05435 88.97059
129 55.37750 0.000000 17.50980 9.855185 5.558202 3.336915
130 75.16160 0.000000 18.27990 18.72683 10.57902 4.330142
131 89.13920 16.30590 32.73970 30.29698 18.46785 10.73599
132 100.0000 31.81200 44.76270 42.31716 27.90183 19.70219
133 36.88520 0.000000 0.000000 4.161420 2.412106 0.427220
134 43.10350 0.000000 0.000000 5.630614 3.238017 0.495464
135 100.0000 32.09000 0.000000 39.16572 26.56429 3.320684
136 100.0000 54.36400 0.000000 46.04349 38.60276 5.229430
137 100.0000 76.60480 0.000000 57.83782 59.19572 8.631657
138 73.84060 100.0000 0.000000 59.02354 81.88765 13.28746
139 80.29270 100.0000 30.70610 64.43240 84.74744 21.42787
140 43.36610 100.0000 0.000000 47.26052 75.37004 12.44145
141 0.000000 73.40290 30.93540 22.08689 36.45150 13.56431
142 40.14330 80.07680 31.68820 31.19815 46.53206 15.65019
143 78.22080 88.29580 66.52260 58.26403 68.28154 47.70543
144 100.0000 0.000000 21.51790 36.40954 20.59672 6.794529
145 100.0000 0.000000 35.83500 37.51067 21.07622 12.49337
146 100.0000 28.99050 61.57670 44.73950 28.20197 34.97881
147 51.14510 28.99950 22.13850 11.44498 9.746418 5.236281
148 50.81810 31.37400 33.74220 12.88983 10.99483 10.36691
149 68.00180 36.32910 49.43080 22.96119 17.90030 21.69488
150 1.938000 1.938000 1.938000 0.238794 0.251470 0.286721
151 2.941200 2.941200 2.941200 0.286288 0.296866 0.340685
152 16.42870 12.24390 59.70550 7.288497 4.177443 30.22988
153 19.67950 27.15450 65.17980 10.69260 8.260487 36.82684
154 0.000000 13.94400 33.75180 2.605414 2.173484 9.410962
155 0.000000 32.71840 49.38640 7.470228 7.986110 20.79734
156 30.16560 45.57800 50.64030 13.70686 15.56537 22.83473
157 43.89970 47.82840 88.34310 27.43089 23.14340 74.16619
158 57.63790 48.52260 100.0000 37.18260 28.40926 98.86211
159 70.07160 62.71820 100.0000 48.83320 42.24247 101.1049
160 78.15780 100.0000 100.0000 79.75803 91.53811 107.5449
161 43.46940 55.24250 41.65030 19.04685 23.15624 17.36463
162 55.86650 67.43400 43.10790 29.48884 36.53853 20.38246
163 0.000000 87.20930 0.000000 29.99860 52.16068 8.415574
164 0.000000 100.0000 37.05830 43.81401 73.25014 23.50698
165 0.000000 100.0000 63.39900 48.16294 75.23712 45.93547
166 0.000000 100.0000 81.36340 53.07769 77.48480 71.08542
167 0.000000 19.90840 53.31310 6.016182 4.549511 23.66792
168 0.000000 39.91490 73.54630 14.86129 13.71837 49.61137
169 28.92020 40.35810 73.39050 17.20806 15.19941 49.24127
170 65.73370 63.37360 81.63240 40.15191 38.74589 64.69139
171 66.72700 75.33720 88.11540 49.32663 51.54728 78.29736
172 12.19140 21.93770 12.46780 2.439837 3.267487 2.086190
173 15.17000 32.30430 12.16440 4.456285 6.546599 2.571119
174 27.40230 34.56510 23.77930 7.051818 8.533985 6.019076
175 40.35720 44.00680 54.71030 16.18885 16.38888 26.86091
176 49.97180 45.86590 67.46680 22.18747 20.14055 41.36556
177 0.000000 2.941200 0.000000 0.186436 0.244513 0.181286
178 0.000000 6.097600 0.000000 0.324730 0.472017 0.258824
179 0.000000 9.493700 0.000000 0.490713 0.750158 0.315234
180 0.000000 13.15790 0.000000 0.769208 1.231978 0.391598
181 0.000000 21.42860 0.000000 1.629987 2.754924 0.589952
182 0.000000 26.11940 0.000000 2.407019 4.102422 0.769088
183 11.24920 26.82530 50.54600 6.988009 6.360126 21.65971
184 43.81620 32.97600 51.40810 13.56621 11.48628 22.91826
185 53.50060 35.16700 71.65690 21.64161 16.18469 46.64713
186 13.91340 21.67680 33.79010 3.937974 3.872861 9.592610
187 27.96570 32.69110 47.31270 9.299288 9.037875 19.35536
188 42.04920 56.70460 68.29640 24.49166 26.56271 43.48499
189 58.61230 69.23710 75.12340 38.33034 41.87666 55.72442
190 39.32700 26.07700 11.97960 7.024037 6.557725 2.435430
191 45.88710 49.65890 12.16000 15.16946 18.62005 4.648364
192 56.28040 49.77020 26.83670 19.58438 21.16093 8.878176
193 79.49250 78.28130 26.12100 45.82501 53.70757 13.80517
194 81.94780 89.21980 42.22360 56.93529 69.02102 25.47814
195 30.90970 58.30530 0.000000 14.93534 22.80204 3.475839
196 77.21010 60.97870 0.000000 33.11252 34.64964 4.954538
197 100.0000 100.0000 0.000000 76.36708 91.51616 14.38318
198 100.0000 100.0000 28.38070 77.72506 92.13708 21.22929
199 100.0000 100.0000 51.71140 80.65984 93.50104 36.12580
200 100.0000 100.0000 71.28500 85.08391 95.53033 58.52636
201 69.08600 84.90520 72.63590 52.53758 62.02846 54.80735
202 68.51150 84.54790 89.55640 57.24208 63.77653 81.70833
203 82.43810 88.37970 100.0000 71.90862 74.69187 105.4414
204 6.097600 0.000000 0.000000 0.288063 0.216685 0.158093
205 9.493700 0.000000 0.000000 0.426792 0.304413 0.196240
206 13.15790 0.000000 0.000000 0.651631 0.434717 0.230629
207 30.40380 39.82010 0.000000 7.992630 10.78140 1.690041
208 43.88090 39.79920 28.42450 12.23869 13.03689 8.123439
209 47.05100 70.52200 61.06510 31.39453 39.17377 36.80736
210 16.19310 38.27780 85.95330 19.06726 15.24003 69.21094
211 15.47590 52.23060 86.14750 23.51561 22.95018 70.78211
212 34.81380 60.79330 100.0000 35.63485 33.93733 99.67409
213 59.53990 74.59690 100.0000 50.75902 51.24905 102.2080
214 100.0000 0.000000 0.000000 35.50423 20.17435 2.202407
215 100.0000 30.92930 26.63700 40.07531 26.64230 9.146941
216 100.0000 67.05590 29.04390 53.67800 50.10062 14.21685
217 50.30230 15.21370 85.00030 21.18447 11.59048 66.46125
218 55.74670 56.61130 85.84110 33.98932 31.07210 71.29230
219 16.44740 75.16430 62.73520 28.91658 40.94250 39.39999
220 37.89970 76.17390 86.22470 39.56558 46.84667 74.87566
221 0.000000 0.000000 0.000000 0.105785 0.111305 0.121315
222 21.42860 0.000000 0.000000 1.381050 0.842646 0.277973
223 32.06520 15.46810 0.000000 3.873489 3.234260 0.604070
224 45.82480 15.95310 11.07120 7.484543 5.327006 2.009107
225 34.47470 0.000000 27.53400 4.597518 2.530770 6.265092
226 34.87140 13.22420 38.09900 6.401019 4.169013 11.84263
227 64.77750 22.23970 76.90150 25.27089 15.26093 53.98144
228 69.38500 36.59900 90.18260 34.64828 23.27291 77.35539
229 83.10630 51.26470 100.0000 51.11773 37.52698 99.66409
230 25.00640 20.43410 42.32950 6.038269 4.795555 14.92159
231 48.73780 22.06170 52.81230 13.05041 8.860408 23.58075
232 62.03950 36.25060 58.70340 22.16435 17.11255 30.91470
233 69.33570 47.54220 82.44810 35.11125 27.53811 64.73631
234 86.77670 47.19540 84.35940 45.96067 33.70444 68.81822
235 24.57560 0.000000 41.87140 4.388159 2.229181 13.95308
236 48.50720 0.000000 48.30140 10.61546 5.645314 19.21552
237 68.77400 0.000000 55.97980 20.17218 10.89180 27.19648
238 79.39610 0.000000 73.91050 30.13658 16.04216 49.36161
239 85.62690 25.04150 83.64280 39.30113 23.50070 65.95263
240 100.0000 31.19150 82.44390 51.07761 31.66047 64.94612
241 86.34780 36.03470 14.71280 30.43951 22.50372 5.639040
242 90.32800 48.84900 15.16930 36.86749 30.62559 7.074512
243 100.0000 51.70900 30.72890 46.44180 37.30257 12.67540
244 100.0000 52.93870 49.27170 49.29008 39.24184 24.80154
245 100.0000 67.13170 68.56820 60.22778 53.12505 47.27463
246 87.20930 0.000000 0.000000 25.75351 14.63176 1.612557
247 86.39210 19.03690 13.07400 27.31598 17.23523 4.069053
248 0.000000 0.000000 0.000000 0.105762 0.111242 0.121287
249 0.000000 0.000000 2.941200 0.138109 0.126312 0.288516
250 0.000000 0.000000 6.097600 0.194699 0.152358 0.575431
251 0.000000 0.000000 9.493700 0.265221 0.184753 0.936566
252 53.44080 42.92450 38.74500 17.22303 16.83489 14.32377
253 58.83990 67.78570 57.00970 33.15149 38.56485 31.97939
254 72.91740 100.0000 57.71560 64.09491 84.19947 40.78489
255 100.0000 100.0000 86.49890 89.88327 97.71531 82.64478
256 52.04920 23.12470 0.000000 10.10887 7.832298 1.113788
257 66.43860 33.07720 14.11090 18.02690 14.47548 4.087913
258 87.81080 59.17390 12.61970 39.63743 37.22584 7.590234
259 87.99540 71.42760 28.11160 47.13026 49.21002 13.85966
260 20.10040 65.04420 18.91550 17.58293 28.26207 7.987661
261 17.82260 84.65600 53.20340 33.82332 51.71606 31.40343
262 26.98890 87.66820 65.22220 39.73819 57.66303 44.46180
263 75.96910 78.73440 0.000000 42.94135 52.58171 7.910148
264 100.0000 84.15600 26.03070 64.45691 69.20113 16.29618
265 53.98010 60.25750 0.000000 22.24515 28.33520 4.143344
266 62.18300 62.86940 20.64060 27.55194 32.49218 9.087275
267 72.61770 69.66650 37.99210 37.78797 42.79073 18.08739
268 100.0000 85.33920 56.00650 69.28230 72.46276 36.89752
269 71.12830 56.20070 18.18200 28.04761 28.96509 7.556014
270 73.27400 57.22860 37.77940 31.64236 31.45261 16.17519
271 90.90510 62.20370 39.29820 45.11473 41.93744 18.24028
272 84.53110 50.61070 65.85620 40.12628 32.31033 40.81874
273 100.0000 51.55420 66.55210 52.16636 39.64733 42.73602
274 79.81850 21.71970 38.58110 25.09894 16.02987 13.49335
275 100.0000 54.23650 82.21820 57.94867 43.78735 66.48605
276 100.0000 64.37010 100.0000 69.66435 55.38438 102.5221
277 72.87510 51.54020 69.80320 34.52121 29.32564 45.90154
278 84.69130 64.34010 69.45150 47.54428 43.97890 47.38665
279 0.000000 100.0000 0.000000 41.58465 72.21769 11.96254
280 32.60690 100.0000 26.87670 45.89421 74.49746 18.40612
281 39.90080 100.0000 52.41820 50.65920 76.83318 34.74738
282 20.27650 49.47180 15.36100 10.13786 15.59479 4.876670
283 40.75420 62.37570 27.99080 20.25736 27.91030 10.56764
284 85.73460 71.78190 47.33970 48.46793 50.02040 25.64105
285 100.0000 72.85810 56.84360 61.04491 58.00864 34.74015
286 31.25000 0.000000 0.000000 2.851860 1.672305 0.355593
287 34.08700 0.000000 0.000000 3.432302 2.000359 0.385626
288 35.94710 0.000000 58.28910 9.346064 4.735751 28.69695
289 36.06990 31.67680 60.29640 13.23367 10.77866 32.24642
290 40.86230 71.82660 73.00660 33.52565 40.92949 52.23175
291 49.47780 86.59490 72.75130 45.85894 59.73737 54.85932
292 0.000000 42.43480 33.44120 7.925650 11.54083 10.57088
293 0.000000 50.78510 58.37380 14.53288 18.14575 30.83649
294 0.000000 55.14440 76.20450 20.87743 23.45537 54.18271
295 0.000000 64.73020 100.0000 34.28947 35.53956 99.91201
296 26.16140 74.40180 100.0000 41.64125 46.18209 101.6989
297 56.47820 87.62840 100.0000 58.71444 66.60955 104.8535
298 19.22320 50.22490 66.19990 17.05833 19.00923 40.01688
299 37.13860 54.58590 78.87100 25.41100 25.50600 58.40358
300 54.02540 88.27790 87.42630 53.33996 64.93375 78.80241
301 63.71270 100.0000 88.56070 67.86175 85.44770 83.68159
302 0.000000 27.13660 16.75930 3.035812 4.635439 3.144741
303 15.44170 33.30480 27.15890 5.602700 7.459399 6.954783
304 19.31920 62.83040 69.24760 23.57188 29.32067 45.72617
305 100.0000 100.0000 100.0000 95.01257 99.99131 108.8220
306 18.60190 41.88460 25.20550 8.054320 11.54514 6.989726
307 41.54760 49.89220 26.61610 14.73340 18.30639 8.626258
308 57.14070 54.32230 42.30190 23.62175 25.50002 18.05161
309 0.000000 0.000000 0.000000 0.105802 0.111267 0.121568
310 9.658200 11.50980 20.40830 1.594421 1.467422 3.716621
311 19.04970 11.18800 27.51010 2.800094 2.088868 6.309841
312 57.33100 52.49970 63.27430 26.34208 25.39323 36.79045
313 90.93770 64.20980 82.25910 55.77678 48.18104 67.19002
314 100.0000 75.69860 84.40330 70.00504 64.10101 72.72784
315 50.00000 0.000000 0.000000 7.635950 4.366095 0.597122
316 57.69230 0.000000 0.000000 10.29884 5.873787 0.741726
317 71.33700 0.000000 0.000000 16.25237 9.237891 1.055614
318 76.08700 0.000000 0.000000 18.66893 10.60215 1.201472
319 78.89500 29.95980 27.77650 24.65104 17.39915 8.229200
320 86.81280 37.12010 68.73170 38.14158 26.33199 43.29780
321 0.000000 0.000000 0.000000 0.105746 0.111302 0.121209
322 0.957900 0.957900 0.957900 0.169931 0.179300 0.200260
323 0.000000 16.31410 23.98720 1.927429 2.133815 4.977305
324 15.71200 39.91300 51.33350 10.30430 11.67727 23.03364
325 19.12750 39.85590 62.36580 12.90595 12.90697 34.60939
326 21.16760 63.57770 61.56720 22.20731 29.29897 35.65116
327 0.000000 57.26080 52.38510 16.06136 22.36981 25.46164
328 0.000000 80.21960 57.56340 30.54826 46.17816 34.85387
329 0.000000 78.39730 72.30790 32.60642 45.31476 52.19045
330 28.84830 84.22220 77.57600 40.67626 54.62370 61.44160
331 17.32670 66.20070 83.85410 29.74038 34.66868 68.62064
332 45.35070 68.33630 86.66610 37.04669 40.00595 73.96812
333 0.000000 33.06350 36.21570 5.682527 7.313781 11.12414
334 30.79410 42.97500 37.93230 11.20713 13.51139 13.35625
335 59.04310 82.28690 44.41050 40.65550 53.86313 24.41180
336 81.79900 84.25570 53.91850 54.89147 63.22493 33.06472
337 100.0000 83.75950 76.98230 73.34426 72.93251 62.56618
338 32.07760 27.07010 17.93180 6.012556 6.271364 3.737922
339 52.79700 71.01350 19.66980 28.38472 38.56471 9.961163
340 52.27570 79.60350 57.78570 38.27876 50.01363 35.06670
341 64.77410 81.15080 78.11230 49.28554 56.69094 61.87583
342 100.0000 0.000000 50.46370 39.62945 22.05813 23.15002
343 100.0000 0.000000 65.37160 42.68727 23.44008 38.73176
344 2.941200 0.000000 0.000000 0.175137 0.149231 0.131809
345 18.85780 0.000000 12.33090 1.324978 0.767537 1.454788
346 43.04390 0.000000 100.0000 24.08840 11.54187 96.16345
347 74.12410 0.000000 100.0000 36.29118 18.43534 96.56281
348 16.52790 11.04610 0.000000 1.372889 1.373130 0.395815
349 21.13820 20.09420 8.311000 2.835808 3.195307 1.339395
350 35.53660 23.13130 23.16110 6.295348 5.546704 5.040413
351 49.35330 25.56990 42.86750 12.29025 9.189798 15.22955
352 85.27200 29.48270 51.28400 31.56594 20.98551 23.84816
353 17.12330 0.000000 0.000000 0.958317 0.603805 0.250190
354 17.89000 7.724000 17.72730 1.747948 1.301319 2.794098
355 28.43950 16.69360 26.49750 4.479334 3.592392 6.214499
356 33.84430 28.60750 38.21700 8.271554 7.640577 12.22790
357 48.63020 36.48530 44.21140 14.60347 13.24690 17.29860
358 72.62430 69.00880 55.96430 40.18860 43.32975 32.31905
359 82.78600 70.02200 64.44440 48.34143 48.48847 41.52992
360 36.57410 0.000000 16.32310 4.403020 2.497656 2.569618
361 44.27600 13.81920 19.60610 7.237757 4.911329 3.854393
362 26.11940 0.000000 0.000000 2.084520 1.239945 0.314565
363 26.46630 9.370400 15.83620 2.806906 2.004558 2.336670
364 41.37490 16.32870 28.79920 7.285892 5.149855 7.097734
365 57.11900 16.08520 30.68830 12.65814 8.181441 8.149296
366 59.95540 100.0000 35.31090 54.89985 79.39912 23.46006
367 43.80750 77.45540 0.000000 28.71062 43.31590 6.686207
368 61.13830 85.66690 16.69510 41.17673 56.91128 12.43703
369 33.78510 35.57700 13.81460 7.937439 9.444815 3.326560
370 55.02440 37.24910 13.26610 14.15472 13.43955 3.857176
371 65.97160 41.08410 30.94400 21.03983 18.50118 10.23724
372 84.89430 46.25100 35.75330 33.66556 27.57627 13.84405
373 66.32650 0.000000 0.000000 13.95609 7.930576 0.923851
374 73.97690 25.11740 0.000000 19.95186 13.83129 1.727140
375 75.41430 42.08110 0.000000 24.36703 20.99605 2.806146
376 78.87630 60.91410 85.93000 47.18982 41.18576 72.94157
377 0.000000 15.40630 14.30400 1.263689 1.710227 2.047743
378 11.24390 24.45670 25.01690 3.427117 4.191971 5.621521
379 16.43260 30.69230 37.35890 6.046761 6.798945 11.88763
380 68.30620 37.06130 39.23030 21.82485 17.55844 14.54477
381 86.88740 40.43650 44.29040 34.52302 25.83318 19.07717
382 64.22030 18.93380 13.31190 14.58348 9.771229 3.010116
383 63.61100 21.07100 25.22660 15.06055 10.29601 6.239843
384 68.56590 19.27100 44.17510 19.44663 12.31743 16.93225
385 71.09250 22.34740 58.61390 23.44507 14.80980 29.97956
386 73.49130 31.52980 71.93060 29.53398 19.68724 46.80843
387 75.89100 67.47340 77.93730 46.34477 45.07179 60.04479
388 83.48640 86.06570 75.29090 62.27520 68.19557 59.77395
389 95.52850 95.52850 95.52850 85.76090 90.34226 98.17597
390 100.0000 100.0000 100.0000 95.01237 99.98288 108.7929
391 65.95400 50.43070 55.43880 27.56304 25.43972 28.43421
392 81.72910 51.30650 55.07860 36.29462 30.79381 28.56801
393 54.35120 0.000000 32.83820 10.77737 5.948464 9.324136
394 75.04730 0.000000 32.10110 19.53091 10.91251 9.291852
395 100.0000 0.000000 81.76980 47.40936 25.59696 62.67861
396 100.0000 0.000000 100.0000 54.33000 28.64433 97.93342
397 100.0000 38.63710 100.0000 59.70282 37.96193 99.80460
398 0.000000 0.000000 13.15790 0.406475 0.249711 1.637872
399 0.000000 0.000000 17.12330 0.573925 0.326712 2.480931
400 17.55030 0.000000 23.49520 1.812725 0.976967 4.500465
401 22.76700 86.31840 41.74040 33.79818 53.24720 22.84663
402 44.31810 100.0000 72.14050 56.08291 79.41416 57.29959
403 74.39550 100.0000 75.31230 68.83589 86.39653 62.75833
404 0.000000 47.75370 21.56030 8.637638 13.95886 6.277628
405 19.14220 51.28790 38.84230 12.49718 17.47684 14.64223
406 70.46980 54.15530 48.77570 30.00050 28.70633 22.75415
407 87.18170 59.64690 51.97970 43.13136 39.08164 27.28282
408 90.68340 83.82440 66.26670 63.26380 67.43989 46.85383
409 20.51650 58.11250 32.00270 14.93985 22.46460 11.89515
410 32.39820 72.88490 45.09430 26.51029 38.43638 22.27845
411 85.55900 100.0000 88.25950 79.60744 91.95512 84.01212
412 100.0000 100.0000 100.0000 94.99315 99.96480 108.7923
413 30.75970 0.000000 74.83900 12.28145 5.955484 49.56827
414 57.88870 0.000000 75.52940 20.39703 10.47496 51.81543
415 77.74030 8.611500 87.17340 33.65799 18.07151 70.95294
416 90.85190 80.23580 87.38890 67.16493 65.98017 78.25521
417 100.0000 83.27960 100.0000 81.26026 75.87121 105.0343
END_DATA
CAL    

DESCRIPTOR "Argyll Device Calibration State"
ORIGINATOR "Argyll dispread"
CREATED "Tue May 26 13:04:45 2020"
DEVICE_CLASS "DISPLAY"
COLOR_REP "RGB"

BEGIN_ARGYLL_DISPCAL_ARGS
-v2 -ql -m -w0.3127,0.329 -gs -f1.0 -k0 -A4.0 -d1 -c1 -yn -P0.475468687675,0.649334945586,2.11251980983 -F -X "i1 DisplayPro, ColorMunki Display & Dell, DELL U2718Q (i1 Pro).ccmx"
END_ARGYLL_DISPCAL_ARGS


NUMBER_OF_FIELDS 4
BEGIN_DATA_FORMAT
RGB_I RGB_R RGB_G RGB_B
END_DATA_FORMAT

NUMBER_OF_SETS 256
BEGIN_DATA
0.00000000 0.00000000 0.00000000 0.00000000
0.00392157 0.00521351 0.00505893 0.00527818
0.00784314 0.01036590 0.01005540 0.01046210
0.01176470 0.01545830 0.01499060 0.01555420
0.01568630 0.02049160 0.01986560 0.02055700
0.01960780 0.02546700 0.02468150 0.02547270
0.02352940 0.03038550 0.02943950 0.03030370
0.02745100 0.03524800 0.03413960 0.03504990
0.03137250 0.04003850 0.03876170 0.03969100
0.03529410 0.04471640 0.04328100 0.04420390
0.03921570 0.04926790 0.04768080 0.04857780
0.04313730 0.05369320 0.05196600 0.05282480
0.04705880 0.05799980 0.05614010 0.05695250
0.05098040 0.06219180 0.06020270 0.06096160
0.05490200 0.06627360 0.06416420 0.06487000
0.05882350 0.07027530 0.06805070 0.06869870
0.06274510 0.07422850 0.07188510 0.07246450
0.06666670 0.07815030 0.07568010 0.07618560
0.07058820 0.08205580 0.07944640 0.07988280
0.07450980 0.08596150 0.08320550 0.08357490
0.07843140 0.08989110 0.08697350 0.08727620
0.08235290 0.09386210 0.09076250 0.09099390
0.08627450 0.09788390 0.09457310 0.09472790
0.09019610 0.10194800 0.09840090 0.09846780
0.09411760 0.10604900 0.10224000 0.10220100
0.09803920 0.11017600 0.10607800 0.10592200
0.10196100 0.11430000 0.10990200 0.10963400
0.10588200 0.11840100 0.11371000 0.11334100
0.10980400 0.12247800 0.11750000 0.11703900
0.11372500 0.12653200 0.12127100 0.12072500
0.11764700 0.13056000 0.12501300 0.12440000
0.12156900 0.13455400 0.12871700 0.12805700
0.12549000 0.13848200 0.13236600 0.13168800
0.12941200 0.14233300 0.13596200 0.13529000
0.13333300 0.14612500 0.13952900 0.13886500
0.13725500 0.14989300 0.14307500 0.14242500
0.14117600 0.15364500 0.14660400 0.14597400
0.14509800 0.15738500 0.15011800 0.14952000
0.14902000 0.16111900 0.15361300 0.15305600
0.15294100 0.16485100 0.15709300 0.15658200
0.15686300 0.16858000 0.16055800 0.16010400
0.16078400 0.17228400 0.16400300 0.16361800
0.16470600 0.17595800 0.16742700 0.16711000
0.16862700 0.17960300 0.17083100 0.17058100
0.17254900 0.18320600 0.17420500 0.17403400
0.17647100 0.18676000 0.17754400 0.17746600
0.18039200 0.19026100 0.18085000 0.18087700
0.18431400 0.19371700 0.18412400 0.18427200
0.18823500 0.19712100 0.18736400 0.18765200
0.19215700 0.20047300 0.19057500 0.19101200
0.19607800 0.20380400 0.19376800 0.19435400
0.20000000 0.20713300 0.19694900 0.19768800
0.20392200 0.21046200 0.20011700 0.20101500
0.20784300 0.21379300 0.20327300 0.20433500
0.21176500 0.21712800 0.20642200 0.20765000
0.21568600 0.22046900 0.20956400 0.21096400
0.21960800 0.22381200 0.21269800 0.21427300
0.22352900 0.22717300 0.21583500 0.21757600
0.22745100 0.23055200 0.21897200 0.22087100
0.23137300 0.23395200 0.22211500 0.22416000
0.23529400 0.23737900 0.22526500 0.22745400
0.23921600 0.24084200 0.22842500 0.23075100
0.24313700 0.24434500 0.23159600 0.23405800
0.24705900 0.24789000 0.23477900 0.23737400
0.25098000 0.25147900 0.23798400 0.24070500
0.25490200 0.25510100 0.24121300 0.24405500
0.25882400 0.25875200 0.24446400 0.24741800
0.26274500 0.26243000 0.24773900 0.25079500
0.26666700 0.26613700 0.25103900 0.25418300
0.27058800 0.26986600 0.25436300 0.25758800
0.27451000 0.27359100 0.25769900 0.26100600
0.27843100 0.27731800 0.26104800 0.26443400
0.28235300 0.28105600 0.26441800 0.26787500
0.28627500 0.28480500 0.26780800 0.27132700
0.29019600 0.28855900 0.27121400 0.27478500
0.29411800 0.29232100 0.27463300 0.27824700
0.29803900 0.29609100 0.27806400 0.28170500
0.30196100 0.29986800 0.28150300 0.28515800
0.30588200 0.30365200 0.28494800 0.28861000
0.30980400 0.30743500 0.28839700 0.29205400
0.31372500 0.31121500 0.29184400 0.29548100
0.31764700 0.31499400 0.29528300 0.29888500
0.32156900 0.31878500 0.29871300 0.30226000
0.32549000 0.32258400 0.30213900 0.30561600
0.32941200 0.32638100 0.30556000 0.30895100
0.33333300 0.33017000 0.30897000 0.31226500
0.33725500 0.33395500 0.31236800 0.31555400
0.34117600 0.33772700 0.31576200 0.31882000
0.34509800 0.34148200 0.31915400 0.32207000
0.34902000 0.34522000 0.32253900 0.32531300
0.35294100 0.34894100 0.32591600 0.32854500
0.35686300 0.35264900 0.32928700 0.33176700
0.36078400 0.35634800 0.33265800 0.33497800
0.36470600 0.36004700 0.33603400 0.33818300
0.36862700 0.36375000 0.33941800 0.34138400
0.37254900 0.36745500 0.34282000 0.34458400
0.37647100 0.37116100 0.34623600 0.34778800
0.38039200 0.37487600 0.34966100 0.35099500
0.38431400 0.37859800 0.35309500 0.35420700
0.38823500 0.38232600 0.35653800 0.35742200
0.39215700 0.38605600 0.35998400 0.36064700
0.39607800 0.38979500 0.36342800 0.36387900
0.40000000 0.39354300 0.36687200 0.36711900
0.40392200 0.39728200 0.37031900 0.37036200
0.40784300 0.40100600 0.37376200 0.37361700
0.41176500 0.40469700 0.37718800 0.37688700
0.41568600 0.40833800 0.38059500 0.38016400
0.41960800 0.41192300 0.38397100 0.38344100
0.42352900 0.41544200 0.38731000 0.38672000
0.42745100 0.41889700 0.39061000 0.39000100
0.43137300 0.42230500 0.39386900 0.39328500
0.43529400 0.42567000 0.39709500 0.39656500
0.43921600 0.42898800 0.40030300 0.39984000
0.44313700 0.43227900 0.40349200 0.40311600
0.44705900 0.43556100 0.40666500 0.40640500
0.45098000 0.43884200 0.40983700 0.40970400
0.45490200 0.44213500 0.41301500 0.41301500
0.45882400 0.44544200 0.41620600 0.41634500
0.46274500 0.44877700 0.41941500 0.41969500
0.46666700 0.45214300 0.42264200 0.42307200
0.47058800 0.45553900 0.42589800 0.42648700
0.47451000 0.45897400 0.42918000 0.42993300
0.47843100 0.46245500 0.43249400 0.43341400
0.48235300 0.46598500 0.43584500 0.43693000
0.48627500 0.46956800 0.43923000 0.44048600
0.49019600 0.47322100 0.44264200 0.44408300
0.49411800 0.47695600 0.44609100 0.44771500
0.49803900 0.48076900 0.44958400 0.45137800
0.50196100 0.48465400 0.45311900 0.45508000
0.50588200 0.48860900 0.45669300 0.45882300
0.50980400 0.49263500 0.46030400 0.46260100
0.51372500 0.49673600 0.46395600 0.46640900
0.51764700 0.50091400 0.46765100 0.47024500
0.52156900 0.50510700 0.47139900 0.47411100
0.52549000 0.50929200 0.47519300 0.47800800
0.52941200 0.51347100 0.47900400 0.48194600
0.53333300 0.51764200 0.48282900 0.48586900
0.53725500 0.52180700 0.48666800 0.48974400
0.54117600 0.52597500 0.49052200 0.49357400
0.54509800 0.53015800 0.49438700 0.49735900
0.54902000 0.53434600 0.49826800 0.50109900
0.55294100 0.53850600 0.50217000 0.50479900
0.55686300 0.54261500 0.50609100 0.50846700
0.56078400 0.54667900 0.51001000 0.51210600
0.56470600 0.55070100 0.51391600 0.51571300
0.56862700 0.55467500 0.51780800 0.51928400
0.57254900 0.55860200 0.52168100 0.52283100
0.57647100 0.56246500 0.52553600 0.52635800
0.58039200 0.56626800 0.52937400 0.52986900
0.58431400 0.57001800 0.53319000 0.53336600
0.58823500 0.57371500 0.53699000 0.53685700
0.59215700 0.57736800 0.54077000 0.54035200
0.59607800 0.58096200 0.54453100 0.54386200
0.60000000 0.58449700 0.54826600 0.54739100
0.60392200 0.58799100 0.55196900 0.55093300
0.60784300 0.59145000 0.55565300 0.55448000
0.61176500 0.59488000 0.55932800 0.55802800
0.61568600 0.59828500 0.56299400 0.56157600
0.61960800 0.60167100 0.56665200 0.56513900
0.62352900 0.60507000 0.57030900 0.56872000
0.62745100 0.60849700 0.57398200 0.57231700
0.63137300 0.61194400 0.57766900 0.57593400
0.63529400 0.61541700 0.58136900 0.57957800
0.63921600 0.61891900 0.58507900 0.58325700
0.64313700 0.62245600 0.58879900 0.58697000
0.64705900 0.62603700 0.59253500 0.59071700
0.65098000 0.62966100 0.59628200 0.59449300
0.65490200 0.63332200 0.60003700 0.59829300
0.65882400 0.63701500 0.60379900 0.60212800
0.66274500 0.64075400 0.60757900 0.60599800
0.66666700 0.64454500 0.61138700 0.60989300
0.67058800 0.64839700 0.61523000 0.61380500
0.67451000 0.65230700 0.61910900 0.61773900
0.67843100 0.65626700 0.62301200 0.62170500
0.68235300 0.66025800 0.62693400 0.62571300
0.68627500 0.66427900 0.63087500 0.62976300
0.69019600 0.66832900 0.63482300 0.63384400
0.69411800 0.67236900 0.63875200 0.63795100
0.69803900 0.67638200 0.64265500 0.64208300
0.70196100 0.68036600 0.64652300 0.64620700
0.70588200 0.68430600 0.65034400 0.65029900
0.70980400 0.68819300 0.65412000 0.65435400
0.71372500 0.69204000 0.65786600 0.65836200
0.71764700 0.69586400 0.66159100 0.66231900
0.72156900 0.69967800 0.66530200 0.66624300
0.72549000 0.70348700 0.66899400 0.67015700
0.72941200 0.70728000 0.67266400 0.67407800
0.73333300 0.71105800 0.67631000 0.67799300
0.73725500 0.71482400 0.67995100 0.68188900
0.74117600 0.71860900 0.68359800 0.68576400
0.74509800 0.72243000 0.68725400 0.68962200
0.74902000 0.72629300 0.69091100 0.69347600
0.75294100 0.73019300 0.69456300 0.69732600
0.75686300 0.73412400 0.69822300 0.70116900
0.76078400 0.73810300 0.70189800 0.70500500
0.76470600 0.74213600 0.70558200 0.70883800
0.76862700 0.74622200 0.70927800 0.71267100
0.77254900 0.75037200 0.71299800 0.71650100
0.77647100 0.75458200 0.71674700 0.72033100
0.78039200 0.75883500 0.72052500 0.72416100
0.78431400 0.76313600 0.72433400 0.72799500
0.78823500 0.76747800 0.72816800 0.73183300
0.79215700 0.77185300 0.73202400 0.73567200
0.79607800 0.77626900 0.73589800 0.73950600
0.80000000 0.78071400 0.73978500 0.74332700
0.80392200 0.78516400 0.74368100 0.74712500
0.80784300 0.78963000 0.74760000 0.75090300
0.81176500 0.79412800 0.75154800 0.75467400
0.81568600 0.79865600 0.75551400 0.75844800
0.81960800 0.80320100 0.75949200 0.76223600
0.82352900 0.80772400 0.76346300 0.76603600
0.82745100 0.81221700 0.76742200 0.76984600
0.83137300 0.81668900 0.77137200 0.77366800
0.83529400 0.82117200 0.77532200 0.77750500
0.83921600 0.82567700 0.77928500 0.78135200
0.84313700 0.83019900 0.78325200 0.78522600
0.84705900 0.83473200 0.78722100 0.78914200
0.85098000 0.83925300 0.79119000 0.79310400
0.85490200 0.84374300 0.79515400 0.79710500
0.85882400 0.84819900 0.79910900 0.80114300
0.86274500 0.85263200 0.80305500 0.80520700
0.86666700 0.85703300 0.80700100 0.80928400
0.87058800 0.86140100 0.81094700 0.81337000
0.87451000 0.86572900 0.81489200 0.81747300
0.87843100 0.87001800 0.81882800 0.82161100
0.88235300 0.87430200 0.82275300 0.82577700
0.88627500 0.87858900 0.82669100 0.82996000
0.89019600 0.88287600 0.83064700 0.83415400
0.89411800 0.88716000 0.83461400 0.83836600
0.89803900 0.89142900 0.83859600 0.84261200
0.90196100 0.89570300 0.84258900 0.84689100
0.90588200 0.89997100 0.84660600 0.85120700
0.90980400 0.90423400 0.85064100 0.85555600
0.91372500 0.90848600 0.85469100 0.85993400
0.91764700 0.91273000 0.85875300 0.86433600
0.92156900 0.91695700 0.86282800 0.86875800
0.92549000 0.92117400 0.86690600 0.87318500
0.92941200 0.92539700 0.87099000 0.87762400
0.93333300 0.92962700 0.87509400 0.88207500
0.93725500 0.93386400 0.87921300 0.88655300
0.94117600 0.93808600 0.88335100 0.89105700
0.94509800 0.94228400 0.88749800 0.89557400
0.94902000 0.94647400 0.89164600 0.90010700
0.95294100 0.95066300 0.89580200 0.90466000
0.95686300 0.95484700 0.89996700 0.90924900
0.96078400 0.95902000 0.90414400 0.91386900
0.96470600 0.96318800 0.90833200 0.91851600
0.96862700 0.96735200 0.91253500 0.92318500
0.97254900 0.97150800 0.91675000 0.92788200
0.97647100 0.97565500 0.92097400 0.93260600
0.98039200 0.97979500 0.92520500 0.93735300
0.98431400 0.98392700 0.92944600 0.94212200
0.98823500 0.98805100 0.93369400 0.94691400
0.99215700 0.99216800 0.93795100 0.95172900
0.99607800 0.99627700 0.94221700 0.95656600
1.00000000 1.00000000 0.94649100 0.96142700
END_DATA
