CTI3   

DESCRIPTOR "Argyll Calibration Target chart information 3"
ORIGINATOR "Argyll dispread"
CREATED "Sat Aug 20 17:54:06 2022"
DEVICE_CLASS "DISPLAY"
SINGLE_DIM_STEPS "21"
COMP_GREY_STEPS "61"
DARK_REGION_EMPHASIS "1.6"
COLOR_REP "RGB_XYZ"
TARGET_INSTRUMENT "X-Rite i1 DisplayPro, ColorMunki Display"
DISPLAY_TYPE_REFRESH "NO"
DISPLAY_TYPE_BASE_ID "1"
INSTRUMENT_TYPE_SPECTRAL "NO"
LUMINANCE_XYZ_CDM2 "72.829422 76.549853 83.507553"
NORMALIZED_TO_Y_100 "YES"
VIDEO_LUT_CALIBRATION_POSSIBLE "YES"

BEGIN_ARGYLL_COLPROF_ARGS
-v -qh -aX -bn -C "No copyright. Created with DisplayCAL 3.8.9.3 and ArgyllCMS 2.1.2" -M "KOIOS K2721UG"
END_ARGYLL_COLPROF_ARGS

OBSERVER "1931_2"
USE_BLACK_POINT_COMPENSATION "NO"
BLACK_POINT_CORRECTION "0.0"
HIRES_B2A "YES"
HIRES_B2A_SIZE "-1"
SMOOTH_B2A "YES"
PATCH_SEQUENCE "OPTIMIZE_DISPLAY_RESPONSE_DELAY"

NUMBER_OF_FIELDS 7
BEGIN_DATA_FORMAT
SAMPLE_ID RGB_R RGB_G RGB_B XYZ_X XYZ_Y XYZ_Z
END_DATA_FORMAT

NUMBER_OF_SETS 588
BEGIN_DATA
1 100.0000 100.0000 100.0000 95.13986 100.0000 109.0891
2 1.960800 1.960800 1.960800 0.199166 0.213042 0.235889
3 3.921600 3.921600 3.921600 0.377549 0.401146 0.466363
4 5.882400 5.882400 5.882400 0.563196 0.583560 0.686877
5 9.803900 9.803900 9.803900 1.024060 1.054613 1.195275
6 13.72600 13.72600 13.72600 1.705731 1.794791 1.965157
7 17.64700 17.64700 17.64700 2.620491 2.766712 3.029329
8 21.56900 21.56900 21.56900 3.709195 3.927245 4.311005
9 25.49000 25.49000 25.49000 5.070773 5.308755 5.954979
10 29.41200 29.41200 29.41200 6.555518 6.861753 7.729121
11 33.33300 33.33300 33.33300 8.414205 8.843437 9.895481
12 37.25500 37.25500 37.25500 10.62792 11.12170 12.38256
13 41.17600 41.17600 41.17600 13.15992 13.83952 15.13109
14 45.09800 45.09800 45.09800 16.08111 16.94902 18.50056
15 49.02000 49.02000 49.02000 19.20449 20.35006 21.93537
16 52.94100 52.94100 52.94100 22.82152 24.15516 26.12997
17 56.86300 56.86300 56.86300 26.97991 28.32284 31.03457
18 60.78400 60.78400 60.78400 31.15379 32.73942 35.98060
19 64.70600 64.70600 64.70600 35.85106 37.63907 41.51610
20 68.62700 68.62700 68.62700 40.85984 42.91862 46.83658
21 72.54900 72.54900 72.54900 46.12377 48.34318 52.61487
22 76.47100 76.47100 76.47100 51.58958 54.36736 59.08737
23 80.39200 80.39200 80.39200 58.13814 61.30299 66.55166
24 84.31400 84.31400 84.31400 64.31066 67.70453 73.76447
25 88.23500 88.23500 88.23500 70.99451 74.83712 81.47828
26 92.15700 92.15700 92.15700 78.20441 82.26027 90.18198
27 96.07800 96.07800 96.07800 86.57623 91.13469 99.63709
28 0.000000 0.000000 16.30430 0.565447 0.268572 2.522422
29 0.000000 0.000000 19.66290 0.730205 0.324610 3.398692
30 18.89600 0.000000 34.35100 3.415064 1.423196 10.01754
31 27.05250 0.000000 59.19420 8.874249 3.446601 32.02715
32 39.22210 0.000000 78.96060 17.30491 6.708680 60.05222
33 0.000000 43.57140 75.87360 14.70947 14.65531 55.01190
34 0.000000 58.07990 84.27350 21.55233 25.52517 71.22705
35 0.000000 61.40900 100.0000 29.04965 30.62384 105.2102
36 100.0000 28.88820 0.000000 49.17214 26.83603 0.990443
37 100.0000 70.51690 23.89170 61.07304 54.84359 7.781325
38 100.0000 74.40020 52.21840 66.18252 59.85955 27.24222
39 13.15790 0.000000 0.000000 0.861320 0.462261 0.188378
40 16.30430 0.000000 0.000000 1.232189 0.635111 0.202974
41 19.66290 0.000000 0.000000 1.601247 0.806769 0.212549
42 23.25580 0.000000 0.000000 2.155463 1.065293 0.221735
43 27.10840 0.000000 0.000000 2.792373 1.362318 0.229462
44 31.25000 0.000000 0.000000 3.732361 1.801369 0.239410
45 35.71430 0.000000 0.000000 4.781891 2.291224 0.250034
46 37.87990 0.000000 0.000000 5.480681 2.616652 0.256672
47 40.54050 0.000000 0.000000 6.214556 2.959094 0.263833
48 45.77470 0.000000 0.000000 8.197463 3.884920 0.283886
49 51.47060 0.000000 0.000000 10.48868 4.953637 0.306364
50 57.69230 0.000000 0.000000 13.73137 6.466586 0.338474
51 64.51610 0.000000 0.000000 17.61315 8.276944 0.378067
52 72.03390 0.000000 0.000000 22.53886 10.57679 0.427589
53 80.35710 0.000000 0.000000 28.70915 13.45337 0.488342
54 81.45190 100.0000 0.000000 57.91153 85.16941 5.198653
55 80.39330 100.0000 32.41380 58.63271 85.18841 14.23190
56 61.06840 100.0000 0.000000 43.70624 78.32156 5.054790
57 100.0000 100.0000 30.33970 76.87608 93.81672 13.19971
58 100.0000 100.0000 86.40530 89.35950 98.02837 79.35272
59 0.000000 13.15790 0.000000 0.546463 1.217841 0.276038
60 0.000000 16.30430 0.000000 0.739526 1.706402 0.309825
61 0.000000 19.66290 0.000000 1.002526 2.370326 0.353932
62 0.000000 23.25580 0.000000 1.304198 3.135784 0.404568
63 0.000000 27.10840 0.000000 1.689423 4.113694 0.469245
64 0.000000 31.25000 0.000000 2.198365 5.406745 0.556374
65 0.000000 35.71430 0.000000 2.842899 7.041586 0.665032
66 0.000000 40.54050 0.000000 3.717994 9.284057 0.800531
67 0.000000 45.77470 0.000000 4.925401 12.33774 1.014497
68 0.000000 51.47060 0.000000 6.330871 15.88834 1.251131
69 0.000000 57.69230 0.000000 8.142795 20.40162 1.549259
70 0.000000 64.51610 0.000000 10.42832 26.32417 1.942647
71 0.000000 72.03390 0.000000 13.18029 33.32102 2.400087
72 0.000000 80.35710 0.000000 17.04983 43.10600 3.048280
73 0.000000 89.62260 0.000000 21.73886 54.99540 3.840598
74 0.000000 100.0000 0.000000 27.97680 70.89819 4.884733
75 34.28220 100.0000 0.000000 32.28135 72.93566 4.932690
76 64.81260 100.0000 89.16240 61.09951 84.66259 84.27736
77 0.000000 0.000000 7.425700 0.231643 0.154689 0.792948
78 0.000000 0.000000 10.20410 0.294963 0.176303 1.122220
79 0.000000 0.000000 13.15790 0.420510 0.218799 1.767159
80 23.78610 0.000000 12.34190 2.506152 1.196209 1.601767
81 0.000000 0.000000 0.000000 0.105978 0.111183 0.121459
82 0.000000 0.000000 4.807700 0.170385 0.133584 0.466617
83 0.000000 0.000000 27.10840 1.262860 0.506999 6.213852
84 0.000000 0.000000 31.25000 1.630694 0.633356 8.169520
85 0.000000 0.000000 35.71430 2.086933 0.788571 10.58629
86 0.000000 0.000000 40.54050 2.650248 0.981287 13.56837
87 0.000000 0.000000 45.77470 3.466242 1.259679 17.89446
88 0.000000 0.000000 51.47060 4.418811 1.585616 22.90312
89 0.000000 0.000000 57.69230 5.754915 2.041966 29.94682
90 0.000000 0.000000 64.51610 7.424491 2.613365 38.77876
91 0.000000 0.000000 72.03390 9.318465 3.255400 48.73944
92 0.000000 0.000000 80.35710 11.93989 4.149209 62.57387
93 0.000000 0.000000 89.62260 15.22671 5.278239 79.92107
94 0.000000 0.000000 100.0000 19.64586 6.752557 103.2151
95 0.000000 34.75980 100.0000 22.33869 13.51047 103.7840
96 55.83250 57.95840 100.0000 40.85197 33.89251 104.8364
97 0.000000 2.336400 0.000000 0.141647 0.201700 0.150850
98 3.144700 3.144700 3.144700 0.280707 0.296110 0.350099
99 3.968300 3.968300 3.968300 0.377435 0.400800 0.466231
100 4.807700 4.807700 4.807700 0.445097 0.475585 0.545197
101 5.663400 5.663400 5.663400 0.520436 0.533258 0.638652
102 6.535900 6.535900 6.535900 0.630394 0.670233 0.782797
103 7.425700 7.425700 7.425700 0.732606 0.781147 0.898874
104 8.333300 8.333300 8.333300 0.823208 0.854630 1.009828
105 9.259300 9.259300 9.259300 0.985108 1.037312 1.137022
106 10.20410 10.20410 10.20410 1.051800 1.104404 1.257605
107 11.16840 11.16840 11.16840 1.178845 1.238085 1.395538
108 12.15280 12.15280 12.15280 1.397187 1.421278 1.657965
109 13.15790 13.15790 13.15790 1.636282 1.700726 1.962446
110 14.18440 14.18440 14.18440 1.785286 1.832805 2.071111
111 15.23300 15.23300 15.23300 2.048836 2.145094 2.414157
112 16.30430 16.30430 16.30430 2.354212 2.421019 2.769181
113 17.39930 17.39930 17.39930 2.507125 2.640062 2.906556
114 18.51850 18.51850 18.51850 2.846041 2.949391 3.305160
115 19.66290 19.66290 19.66290 3.164571 3.336049 3.713705
116 20.83330 20.83330 20.83330 3.544925 3.678291 4.159360
117 22.03070 22.03070 22.03070 3.860182 4.091260 4.473259
118 23.25580 23.25580 23.25580 4.261574 4.452232 4.937484
119 24.50980 24.50980 24.50980 4.650881 4.920301 5.447576
120 25.79360 25.79360 25.79360 5.258087 5.507392 6.147490
121 27.10840 27.10840 27.10840 5.636409 5.883831 6.712108
122 28.45530 28.45530 28.45530 6.236494 6.607279 7.323374
123 29.83540 29.83540 29.83540 6.754236 7.085761 7.939879
124 58.62820 41.67410 57.64400 24.37289 18.93269 31.31553
125 100.0000 100.0000 100.0000 95.29784 100.1419 109.0891
126 31.25000 31.25000 31.25000 7.482439 7.776367 8.783785
127 35.71430 35.71430 35.71430 9.697287 10.12768 11.38810
128 37.28070 37.28070 37.28070 10.63913 11.13319 12.39870
129 38.88890 38.88890 38.88890 11.63344 12.20149 13.47213
130 40.54050 40.54050 40.54050 12.66418 13.31831 14.59589
131 42.23740 42.23740 42.23740 14.03734 14.77663 16.06317
132 43.98150 43.98150 43.98150 15.22598 16.03041 17.59411
133 45.77470 45.77470 45.77470 16.69698 17.64378 19.24079
134 47.61910 47.61910 47.61910 17.95960 18.99224 20.59814
135 49.51690 49.51690 49.51690 19.61211 20.75665 22.32375
136 51.47060 51.47060 51.47060 21.39656 22.63190 24.54284
137 53.48260 53.48260 53.48260 23.20201 24.34471 26.62796
138 55.55560 55.55560 55.55560 25.73810 26.96526 29.71274
139 57.69230 57.69230 57.69230 27.87401 29.24353 32.04437
140 59.89580 59.89580 59.89580 30.21908 31.72113 34.97350
141 62.16930 62.16930 62.16930 33.23076 34.91949 38.22848
142 64.51610 64.51610 64.51610 35.96111 37.68311 41.48421
143 66.93990 66.93990 66.93990 39.16328 41.17650 45.05479
144 69.44440 69.44440 69.44440 42.09747 44.27606 48.13866
145 86.48170 100.0000 87.96510 76.84849 92.09642 82.17529
146 85.75850 100.0000 100.0000 81.08094 93.38995 108.6965
147 100.0000 100.0000 100.0000 94.92936 99.85642 108.8417
148 72.03390 72.03390 72.03390 45.49586 47.56787 52.11492
149 74.71260 74.71260 74.71260 49.34175 51.68498 56.09750
150 86.41970 86.41970 86.41970 67.74669 71.43854 77.49863
151 89.62260 89.62260 89.62260 74.05451 78.03704 84.96095
152 92.94870 92.94870 92.94870 79.77578 83.95785 91.92433
153 96.40520 96.40520 96.40520 87.67767 92.19886 100.8794
154 100.0000 25.52770 23.36250 49.78366 26.25233 5.680444
155 89.62260 0.000000 0.000000 36.60336 17.14348 0.568371
156 100.0000 0.000000 0.000000 47.54897 22.23266 0.680811
157 100.0000 81.57640 0.000000 64.94737 66.78762 3.634014
158 100.0000 100.0000 0.000000 75.39677 93.25677 5.385560
159 24.74910 42.21040 0.000000 6.475934 11.48808 0.909420
160 44.85520 56.33290 0.000000 15.50644 23.19000 1.569546
161 57.50660 100.0000 27.26910 43.22991 78.00315 11.39158
162 100.0000 100.0000 52.42430 80.12322 94.94594 30.18757
163 100.0000 100.0000 72.52190 84.94118 96.44547 55.80863
164 0.000000 100.0000 49.67570 32.19673 72.55564 26.39317
165 0.000000 100.0000 68.22290 36.30222 73.78375 48.68875
166 33.64420 100.0000 73.24510 42.07159 76.32489 56.12619
167 80.74850 100.0000 74.22790 67.37207 88.19347 57.42825
168 57.76380 49.39750 0.000000 19.58735 21.15712 1.310087
169 72.80250 50.26540 59.56320 35.66308 28.51232 34.15420
170 100.0000 28.30330 54.18980 54.10815 28.44616 27.04081
171 100.0000 49.89810 55.93250 58.73991 39.25531 30.38346
172 100.0000 65.66970 56.22180 63.65589 51.63351 31.27523
173 100.0000 47.78940 0.000000 52.88138 35.96665 1.591134
174 100.0000 65.11820 0.000000 57.98499 49.22445 2.474131
175 0.000000 75.23260 100.0000 34.29369 43.78299 106.0959
176 0.000000 86.97000 100.0000 40.16603 58.65522 107.0008
177 36.66060 86.98880 100.0000 45.40520 61.19886 107.2117
178 100.0000 87.44610 100.0000 87.44707 80.96883 107.3974
179 0.000000 0.000000 0.000000 0.105786 0.111190 0.121297
180 54.07270 0.000000 35.24310 13.88427 6.295467 10.64360
181 55.36300 0.000000 69.61230 21.26851 8.898107 46.08593
182 57.89910 23.70020 100.0000 35.17512 16.65287 103.8887
183 78.81400 59.54090 100.0000 56.43415 42.12745 105.4812
184 100.0000 71.01280 100.0000 79.93455 61.88768 106.1986
185 0.000000 0.000000 0.000000 0.105968 0.111186 0.121476
186 0.764500 0.764500 0.764500 0.124717 0.131167 0.144704
187 18.00640 9.058700 0.000000 1.655179 1.329534 0.256790
188 53.62410 19.77870 0.000000 12.55975 7.790387 0.471386
189 63.88300 39.38730 42.01290 23.50695 17.87300 15.79260
190 70.37480 38.13860 54.15400 29.71285 20.04271 26.86949
191 27.97120 40.74420 18.61370 7.340586 11.19061 3.832715
192 47.23620 50.40000 31.25890 16.46640 20.21496 9.545179
193 49.37320 74.00890 77.71840 34.95290 43.92960 60.65600
194 100.0000 0.000000 19.42670 47.94807 22.35255 4.053573
195 100.0000 0.000000 35.01760 49.21165 22.78194 10.87095
196 100.0000 0.000000 48.51700 51.20814 23.47125 21.03244
197 100.0000 0.000000 63.20280 54.31174 24.51807 37.65633
198 100.0000 0.000000 80.17230 59.14427 26.17315 62.71856
199 100.0000 27.02820 85.12030 62.53678 30.96150 72.18116
200 31.96210 27.40370 0.000000 5.502122 6.033820 0.519295
201 44.28980 28.82010 0.000000 9.481903 8.252099 0.586536
202 73.31750 36.92780 0.000000 26.29403 18.52070 0.936892
203 74.59340 59.23920 77.34680 43.79845 36.90986 58.91318
204 38.53720 0.000000 100.0000 25.32259 9.401514 103.4210
205 68.51460 0.000000 100.0000 39.93540 16.22607 103.5605
206 100.0000 0.000000 100.0000 67.05138 28.84823 104.1026
207 100.0000 30.63900 100.0000 69.02864 34.21491 104.4108
208 100.0000 41.25010 26.88020 52.49859 32.50023 7.659513
209 100.0000 51.05190 42.65760 56.66669 39.18278 17.34365
210 59.28030 38.74230 0.000000 18.06478 15.45597 0.914451
211 67.17230 47.13520 25.41160 25.71849 22.76358 6.835082
212 69.41190 60.03140 29.94790 31.17292 32.73647 9.352399
213 32.80450 23.60280 100.0000 25.09131 11.92215 103.9634
214 31.42790 42.19150 100.0000 27.56675 19.01872 104.0448
215 0.000000 32.30870 76.72750 13.00752 9.437857 56.68811
216 30.68160 52.96300 76.96010 21.12640 22.57978 57.77782
217 46.23780 69.24960 100.0000 40.60820 42.18346 105.7242
218 56.41940 80.15800 100.0000 50.03812 56.09379 106.8068
219 20.65240 33.40980 48.35250 8.079297 8.435684 20.55466
220 38.97830 71.49730 50.44100 23.12436 37.31455 24.97882
221 71.81400 77.35520 52.44150 42.57526 51.22334 27.51697
222 81.83270 67.16190 0.000000 41.58672 43.17904 2.428416
223 100.0000 81.97310 42.76710 68.17551 68.49398 19.36840
224 100.0000 83.20040 71.65580 75.30024 72.50605 52.82292
225 33.07110 14.36520 0.000000 4.553886 3.226082 0.327646
226 46.65820 25.97270 13.02750 10.43422 8.022545 2.135920
227 49.26270 28.39350 29.35310 12.91208 9.601287 7.796308
228 72.61900 31.44780 42.60500 28.06744 17.25401 16.20729
229 4.807700 0.000000 0.000000 0.271544 0.188220 0.143318
230 7.425700 0.000000 0.000000 0.410055 0.252559 0.158411
231 10.20410 0.000000 0.000000 0.577421 0.330064 0.172828
232 0.000000 4.807700 0.000000 0.212674 0.373985 0.191175
233 0.000000 7.425700 0.000000 0.298786 0.590801 0.223546
234 0.000000 10.20410 0.000000 0.386286 0.811999 0.245031
235 0.000000 100.0000 27.65390 29.29094 71.49327 11.37023
236 34.38210 100.0000 34.53760 34.53568 73.94631 15.07237
237 64.41480 100.0000 48.20230 49.55724 80.67945 25.44194
238 0.000000 16.42470 58.99690 6.694634 3.764914 31.67224
239 44.06520 21.24130 70.48880 17.63536 9.338900 47.66583
240 64.44260 23.31790 83.38580 31.84635 15.87546 68.92135
241 0.000000 0.000000 23.25580 0.948135 0.399389 4.552487
242 62.04790 0.000000 27.49450 17.35155 8.010215 6.527353
243 75.12340 0.000000 18.97650 25.50604 11.88349 3.535369
244 76.40140 0.000000 64.85750 33.08993 14.57649 39.53286
245 100.0000 52.59540 70.54390 63.23286 42.50275 49.52417
246 39.32640 0.000000 18.78080 6.482086 3.011467 3.332301
247 39.66400 0.000000 34.90850 7.952098 3.532180 10.33386
248 47.09400 14.58840 41.67510 12.06672 6.406108 14.86408
249 78.64520 42.00250 100.0000 51.78060 30.23919 104.8561
250 100.0000 52.65760 100.0000 73.80636 46.18102 105.2836
251 0.000000 10.94960 16.29390 0.884444 1.067413 2.681936
252 0.000000 30.30040 16.70270 2.562661 5.312241 2.982892
253 27.32850 60.36870 62.28410 18.83649 26.53468 37.93376
254 0.000000 39.48630 35.78630 5.604630 9.667253 11.35872
255 35.86700 46.87850 34.96970 12.02770 16.20688 11.33363
256 36.46690 50.60910 53.81980 16.07573 19.64729 26.81039
257 17.95200 20.57330 50.20090 6.559646 4.574866 22.33073
258 45.88720 25.56530 60.36790 16.16596 9.849446 33.97786
259 57.60490 58.63830 80.77520 34.65548 32.47416 65.43334
260 67.41610 72.84500 100.0000 53.26832 50.80228 106.1719
261 100.0000 100.0000 100.0000 94.88797 99.75879 108.8406
262 0.000000 0.000000 2.336400 0.129385 0.119593 0.249019
263 0.000000 16.65700 13.62280 1.057215 1.822942 1.976186
264 0.000000 73.69700 26.07580 15.08936 35.66860 8.197120
265 32.86520 100.0000 53.37270 36.93057 74.63765 30.27766
266 55.77540 100.0000 60.96430 47.52858 79.36996 39.48814
267 51.67260 59.11270 24.38600 20.34675 27.18164 6.804318
268 100.0000 63.97590 36.87700 59.92394 49.02892 14.00597
269 100.0000 69.36910 70.39220 68.89828 56.88684 50.42401
270 100.0000 78.36050 84.33960 77.04503 67.84965 73.82042
271 22.76100 29.18400 19.54870 4.580867 5.908815 3.888535
272 30.49560 37.30130 30.29360 8.101202 10.02329 8.327676
273 30.26190 61.36600 31.55620 14.28126 25.63122 10.02254
274 34.62120 78.60880 0.000000 20.43946 42.59496 2.922031
275 56.44570 78.87840 0.000000 29.37693 47.20245 3.044840
276 81.71600 82.58250 0.000000 47.98682 60.12113 3.560064
277 0.000000 14.59910 29.05270 1.921401 1.832718 7.177315
278 18.86350 19.94540 33.22540 4.218232 3.691287 9.575791
279 32.70040 32.70040 32.70040 7.993769 8.398921 9.463885
280 34.18800 34.18800 34.18800 8.870855 9.336279 10.40440
281 44.63120 35.98560 55.71870 16.10075 12.87191 28.76359
282 0.000000 45.73080 30.23050 6.398080 12.93284 8.547407
283 0.000000 59.37020 52.31240 13.11526 23.15795 25.37660
284 0.000000 79.91970 78.67060 28.36296 46.67140 63.03723
285 0.000000 100.0000 85.51650 41.63956 75.54847 76.72565
286 34.59530 100.0000 87.65550 47.18467 78.10750 81.64912
287 0.000000 26.04620 26.82020 2.730602 4.282401 6.412960
288 0.000000 31.32410 49.63600 6.238140 6.850488 21.73528
289 0.000000 43.21100 49.30060 8.295413 12.21547 21.76198
290 0.000000 48.12520 100.0000 25.19403 20.75882 104.6069
291 30.32160 57.42880 100.0000 31.33982 28.87145 105.1457
292 0.000000 24.81530 52.74980 6.092454 5.122796 24.88514
293 33.84400 29.00620 73.60160 15.99470 10.12761 52.18527
294 77.48540 77.48540 77.48540 53.57441 56.10347 61.32055
295 80.35710 80.35710 80.35710 58.21335 61.24962 66.54961
296 83.33330 83.33330 83.33330 62.75083 66.04779 71.52612
297 28.26550 39.23770 42.93730 9.480214 11.27498 16.14220
298 33.76020 41.31430 81.27960 20.41782 16.06243 65.12706
299 56.20970 42.20050 100.0000 37.06350 23.46127 104.4708
300 31.80140 0.000000 45.48830 7.097923 2.957044 17.77148
301 74.61470 0.000000 48.45430 28.13776 12.70593 20.64494
302 1.543200 1.543200 1.543200 0.163355 0.172814 0.205668
303 2.336400 2.336400 2.336400 0.225330 0.237970 0.285322
304 0.000000 50.78730 21.03700 6.963495 15.93621 4.992461
305 0.000000 62.90500 39.49550 12.26202 25.65911 14.85530
306 0.000000 78.50780 63.33090 22.98282 42.89850 39.77920
307 0.000000 100.0000 100.0000 47.61848 77.48603 107.9480
308 36.07460 100.0000 100.0000 52.66583 80.03880 108.1620
309 70.57460 18.02280 10.98900 22.69624 12.18449 1.696846
310 71.17280 26.68270 27.97970 24.58685 14.73950 7.117482
311 85.38460 37.32850 33.40650 37.79604 23.92100 10.39682
312 86.74810 51.41210 46.91000 44.06803 33.41543 20.82252
313 88.49350 66.56360 55.87470 52.27851 47.28320 30.70045
314 88.46250 74.28090 70.19840 58.58979 55.32307 49.81060
315 90.99020 95.81470 88.71870 78.09217 86.92465 83.06242
316 11.65950 13.75210 0.000000 1.194003 1.587802 0.288450
317 22.61900 18.69170 0.000000 2.909841 3.109480 0.360724
318 33.17390 23.35670 9.877700 5.620303 5.260330 1.409178
319 51.73140 43.01570 27.10980 16.22808 16.35309 7.267295
320 80.27780 70.40530 54.93470 46.90066 47.67535 30.00815
321 84.50910 70.10480 75.65960 54.94471 50.44332 57.23227
322 89.31400 81.68580 89.36930 69.25491 66.98553 83.35907
323 15.20630 8.212700 45.31890 4.624481 2.236185 17.83541
324 18.08690 54.84100 45.16860 11.96719 20.16524 18.88809
325 43.35920 60.03150 45.06470 19.67317 27.07578 19.27251
326 89.41230 52.47130 12.17970 43.18215 34.05413 3.113351
327 100.0000 52.73310 21.95430 54.96185 39.61894 5.976531
328 62.86220 85.59570 42.02670 39.31121 58.59601 18.63992
329 70.07780 89.02190 57.09710 48.71920 66.27730 34.04186
330 86.44990 90.33270 56.43500 61.28818 73.53957 33.50497
331 16.47530 20.21910 11.66790 2.441617 3.128834 1.680305
332 17.11940 32.00930 16.25240 4.005616 6.532797 2.932999
333 34.13690 33.49780 19.84980 7.530354 8.567715 4.158915
334 48.88240 38.50920 34.29310 14.76635 13.57105 10.57652
335 4.607000 12.86060 12.43080 0.969898 1.328195 1.749314
336 22.09410 18.06650 25.83820 3.781697 3.242075 5.988511
337 52.91010 28.09910 53.88830 18.01623 11.56554 26.07812
338 72.27020 46.70970 68.39750 36.16863 26.58462 45.15352
339 71.41340 73.22130 81.22250 48.41803 49.77646 67.25143
340 71.27880 82.56400 92.39700 57.11827 62.64253 89.92657
341 83.37220 87.74810 100.0000 72.18440 74.27507 107.5183
342 0.000000 0.000000 0.000000 0.105927 0.111180 0.121333
343 22.96120 48.66490 49.58920 11.77673 16.64659 22.16582
344 32.67130 68.51910 58.60640 22.01025 34.37563 33.54805
345 32.97730 72.94000 73.99340 27.56539 39.94327 54.49540
346 78.93760 82.02590 73.55670 55.43987 61.59111 55.42590
347 91.36890 85.60890 74.51500 67.51300 70.99744 56.64063
348 100.0000 88.66010 85.67850 82.18281 80.59504 76.43864
349 82.32710 47.47570 53.19080 40.76409 29.56948 26.67611
350 85.37840 74.77350 100.0000 67.16962 59.00922 106.3455
351 41.70330 6.255500 61.16950 13.42571 5.817200 34.67543
352 60.66870 12.90410 64.09630 23.20404 10.85440 38.47208
353 65.78500 35.71460 66.99440 29.56145 18.69722 43.48094
354 22.58180 59.36660 39.32500 13.06302 23.52491 14.54153
355 25.67860 80.48440 74.82010 29.79201 48.03384 56.33514
356 0.000000 13.70720 40.01790 3.083264 2.164213 13.49330
357 11.56340 22.79250 42.41150 4.695374 4.315400 15.38256
358 26.98390 27.11680 46.06180 7.865862 6.644066 18.48329
359 86.20760 43.19030 65.12400 45.55653 29.32741 41.05945
360 100.0000 49.85290 83.64960 66.26088 41.81066 70.07213
361 77.14930 0.000000 84.80280 39.57452 16.88644 70.55799
362 82.38170 20.56730 100.0000 51.31054 23.50983 104.2537
363 28.06240 9.645700 34.86450 5.296917 2.836707 10.39089
364 30.50640 27.88250 37.80980 7.579116 6.883068 12.37502
365 33.20690 38.07990 48.80460 11.31414 11.55045 21.13540
366 45.47270 46.51050 64.31700 20.71668 19.42483 39.82752
367 58.61050 61.01320 72.11140 33.10608 33.59922 51.07664
368 21.53870 46.69480 29.19630 8.303463 14.27613 8.050995
369 37.24840 52.84410 30.60270 13.54645 20.19350 9.195808
370 75.09540 53.78740 40.00300 34.16669 30.00343 15.09348
371 43.39420 16.44700 25.90940 9.145562 5.526664 6.048806
372 45.39650 20.54340 35.51890 11.14596 6.990110 11.08192
373 56.95820 24.23120 37.01220 17.00348 10.56143 11.95450
374 73.39030 23.64090 52.07430 29.29367 15.80387 24.60501
375 81.76170 33.57470 68.16080 40.82218 23.36903 44.77442
376 85.55380 41.27480 82.56580 49.70318 29.79417 68.38560
377 15.06290 62.74620 21.43020 11.57925 25.73764 5.809078
378 15.47800 69.26340 52.38540 17.95466 33.35393 26.54773
379 15.30920 91.61810 82.28560 36.39838 62.54584 70.38073
380 49.87330 95.70680 84.17690 48.88011 73.52689 74.59483
381 63.13800 100.0000 100.0000 64.89308 85.78983 108.5681
382 11.17690 27.22350 22.88960 3.128657 4.742938 4.846903
383 19.81310 30.42000 31.37160 5.311730 6.630473 8.742325
384 23.51750 44.93310 37.61660 9.261026 13.89817 12.86484
385 51.72210 63.98430 40.02690 23.67596 31.90147 15.54410
386 20.92150 87.22550 18.61470 22.93417 52.94508 6.648050
387 19.30050 86.95180 35.88150 24.05326 53.37194 14.41615
388 2.336400 0.000000 0.000000 0.165203 0.138798 0.130072
389 10.71230 19.68690 28.19750 2.768120 3.076337 6.925689
390 10.36360 35.51060 44.25040 6.560493 8.498518 17.47918
391 0.000000 25.42600 35.25780 3.508595 4.445894 10.76383
392 15.83750 25.37290 67.70500 10.77153 7.096954 43.46274
393 17.14150 40.41900 75.82830 15.30449 13.59836 54.98504
394 27.29200 72.36420 100.0000 36.13260 42.35087 106.0437
395 0.000000 47.95810 64.79650 12.89450 16.27624 40.17130
396 44.44840 56.02040 71.54440 24.55773 26.21065 49.50665
397 46.28160 66.66230 77.84080 30.81894 36.49859 60.09783
398 39.74200 69.22580 88.89280 33.52374 39.41586 81.20791
399 49.67500 81.60940 90.95270 43.47846 54.80837 86.03133
400 0.000000 81.24030 46.60590 20.84761 45.13497 21.79166
401 12.86180 90.75110 67.91850 31.33988 59.70576 47.24884
402 37.30920 47.98140 44.38410 13.97513 17.37131 18.03789
403 43.29650 49.62700 58.62650 19.13710 20.53072 32.49296
404 64.14690 49.86930 83.73240 36.84856 27.92616 70.53692
405 82.83070 53.99570 88.25380 52.84802 37.62018 79.14435
406 21.77750 11.35120 25.39400 3.341386 2.195551 5.751327
407 32.03800 15.72030 28.22030 5.732283 3.834990 6.908801
408 67.83400 14.43720 39.26660 22.85657 11.49297 13.37298
409 74.83790 20.98900 72.36740 35.29550 17.52833 50.52485
410 81.51200 30.73380 88.36810 46.87408 24.47105 78.26998
411 25.12620 10.49480 18.51010 3.360745 2.179768 3.234006
412 31.33000 20.78520 21.23270 5.502709 4.594973 4.184541
413 35.15990 24.20580 30.98470 7.625818 6.248954 8.453319
414 45.02010 33.13830 36.47040 12.63954 10.79972 11.85502
415 47.98680 46.21330 37.21150 16.41967 17.84418 12.79956
416 61.01660 49.35620 42.05370 24.49113 23.19968 16.22475
417 12.56530 11.39800 4.467300 1.219821 1.321483 0.578526
418 18.66690 24.97720 8.906000 3.129455 4.399651 1.350931
419 37.55840 30.15280 23.32650 8.315672 7.994892 5.118236
420 46.53210 38.96740 47.73070 15.78603 13.97935 20.56643
421 50.31740 38.67970 70.32940 22.68419 16.61031 47.69249
422 59.31060 48.77640 69.91020 29.31505 24.30808 47.46432
423 86.85730 56.84840 79.16810 53.70294 40.19501 63.03739
424 100.0000 67.01150 85.31040 72.73287 56.37293 74.93485
425 21.05230 11.59800 12.01730 2.512847 1.945628 1.678018
426 25.93910 21.63430 13.97160 4.084416 4.158745 2.199458
427 77.13430 46.30770 17.86130 32.02018 25.37675 4.187645
428 76.74690 88.08880 15.32820 47.40352 65.37006 6.141035
429 79.01330 88.96670 39.81010 51.94395 68.28849 17.73167
430 82.01220 100.0000 58.84290 64.35107 87.29912 37.29661
431 24.31350 51.63360 15.36370 9.186695 17.60073 3.437517
432 41.72500 91.32150 13.87030 29.91115 61.06421 5.803956
433 64.11160 89.55350 20.28470 39.57930 63.02861 7.708881
434 35.99730 57.01550 49.26980 16.90671 23.72894 22.64568
435 44.93480 65.98620 62.80080 26.00867 34.02656 38.81690
436 65.86640 77.64870 75.31340 44.55376 52.02505 56.92123
437 79.11980 24.52000 0.000000 29.35485 16.57925 0.710258
438 80.14180 53.31680 0.000000 35.17733 30.47469 1.623761
439 86.44760 60.92600 26.66320 44.05955 39.42574 8.205092
440 56.29400 43.51910 14.17760 17.99804 17.45609 2.871109
441 59.87750 57.76610 15.95840 23.60344 27.87763 4.080193
442 62.07500 62.46210 40.09880 28.56430 33.26293 15.52290
443 61.28430 70.34360 55.68910 33.75948 41.08946 30.66890
444 50.24330 60.14500 62.00870 26.07769 29.71961 37.50800
445 52.96610 74.14090 61.49430 32.14518 43.22923 37.87032
446 64.46380 88.80190 65.35420 46.42111 64.47213 44.51750
447 80.95440 89.89190 72.95330 60.85352 72.53000 55.03038
448 59.99140 34.48240 13.21560 17.95039 13.75546 2.482042
449 89.25510 37.92080 13.77910 39.84049 25.34574 2.820557
450 59.67510 24.93220 15.71470 16.87779 10.80903 2.829166
451 60.07460 25.52020 48.01600 20.30622 12.11845 20.33923
452 59.73800 47.96910 50.24120 24.79163 22.34426 23.44083
453 61.54940 70.85850 87.70730 43.69886 45.47158 79.16794
454 71.01260 87.28260 89.64530 57.84763 67.74444 84.53934
455 14.36220 39.93140 14.14030 4.967955 9.788728 2.610499
456 37.29210 49.47840 14.25210 11.46383 17.34475 3.028338
457 71.67410 57.35540 14.18980 30.67102 30.92016 3.580775
458 84.53760 59.86990 61.26510 47.76765 39.88168 36.72208
459 15.89670 5.088800 13.06970 1.585759 0.979506 1.801132
460 30.83780 10.07630 14.06940 4.280705 2.596397 2.060131
461 40.00420 21.21410 17.65140 7.718925 5.741533 3.137363
462 29.77780 59.97860 0.000000 12.04311 23.75447 1.705016
463 29.18450 72.76330 18.36010 17.26602 36.11744 5.500272
464 55.33680 76.93410 49.45960 31.83088 45.84841 24.05939
465 100.0000 87.65580 62.44740 75.01881 77.14413 40.72833
466 39.91870 40.61410 0.000000 9.874428 12.40269 0.891508
467 81.44730 78.46270 20.04340 46.55843 54.91566 6.754359
468 89.28300 85.07150 38.62580 58.14825 67.12638 16.42117
469 63.98080 66.02860 0.000000 28.07998 35.69937 2.205637
470 86.72660 70.18640 22.57430 47.37670 48.06250 7.121049
471 100.0000 86.32780 24.84830 68.34274 73.39495 9.356298
472 44.07630 34.49880 13.07840 10.45093 10.24504 2.308612
473 55.84930 36.72030 27.44180 17.01263 14.06586 7.065963
474 67.89440 38.04230 33.46960 25.02418 18.21671 10.26231
475 71.28950 59.55820 67.96460 39.18615 35.35253 45.17492
476 77.68350 72.33030 87.24670 54.31368 51.16616 77.61170
477 13.24170 36.06350 25.85910 4.798154 8.053927 6.346405
478 14.46820 37.42780 37.68180 6.327137 9.080091 12.53778
479 21.35340 44.42840 56.90160 12.00815 14.39297 30.28042
480 42.75000 47.78110 77.20310 23.43857 20.88973 58.21059
481 54.00280 0.000000 51.35020 16.27751 7.113948 23.25135
482 64.12550 14.86390 53.04720 22.77965 11.23129 25.11128
483 25.99970 0.000000 23.42390 3.525561 1.596049 4.853384
484 33.67190 21.41200 41.27500 8.100679 5.746622 14.63045
485 44.40800 29.85350 44.07810 12.85543 9.729903 17.15568
486 55.98960 34.77970 44.86240 18.98127 14.03739 17.93132
487 58.16160 67.78170 61.12890 32.53422 38.51678 37.03157
488 59.44030 70.79670 76.98050 38.81610 43.62095 59.10215
489 7.616300 53.30220 53.85610 12.06176 19.04275 26.83066
490 13.58430 55.67120 66.27580 16.24618 22.15947 42.81347
491 20.30360 58.69140 78.04770 21.49794 26.38885 60.31877
492 23.96840 70.48630 79.99040 26.83391 37.36141 64.64203
493 24.48930 75.19400 93.27590 33.69620 43.94956 90.71548
494 41.32580 64.02880 24.56030 17.74303 29.20295 7.173542
495 58.52760 72.39470 31.54820 29.41229 41.30894 10.86670
496 86.98910 87.20680 65.53210 62.65663 70.77600 44.67166
497 87.09150 15.80210 12.48320 35.22623 17.72974 2.152730
498 87.89500 12.77940 28.57850 36.60251 17.84342 7.461623
499 88.57450 18.20590 43.11890 39.31561 19.61467 16.43621
500 88.90520 36.74370 43.40060 42.07196 25.62767 17.10174
501 84.69420 23.53780 23.21430 34.43243 18.65486 5.293670
502 100.0000 28.75960 40.29010 51.69753 27.72357 14.80085
503 87.16960 16.02800 66.00420 42.79321 20.33407 41.55255
504 100.0000 28.93880 69.71180 57.97138 29.89378 47.21990
505 49.88410 0.000000 14.22340 10.35479 4.849028 2.071506
506 61.26200 11.62360 15.67830 16.49970 8.459406 2.652965
507 73.74440 32.02420 14.18850 26.20047 16.95106 2.625117
508 76.86110 41.75670 28.62770 31.26944 22.70034 7.980944
509 84.62140 65.04010 41.12130 45.78146 43.22267 16.75247
510 60.77970 71.47060 16.26650 29.13303 40.57437 4.917141
511 72.12180 71.76420 31.44380 37.36959 44.31891 10.93208
512 81.97820 74.30400 46.24700 47.87577 50.96978 21.46533
513 27.50910 12.52550 6.598000 3.401596 2.433188 0.863365
514 45.79740 15.06830 9.386900 8.997006 5.350568 1.274258
515 56.33720 22.60020 24.48920 15.34741 9.537053 5.546293
516 89.11950 27.09410 57.06800 43.31908 22.96101 30.76748
517 91.10170 39.55070 56.40820 47.03734 28.74977 30.28984
518 44.61020 13.47320 51.19480 12.71067 6.372299 23.40209
519 45.04280 18.25940 84.19370 22.08710 10.37323 69.97121
520 44.88250 31.81700 86.46670 24.10029 14.16037 73.97628
521 49.36150 45.63560 89.81860 29.95590 22.21395 81.46996
522 8.682500 9.034700 17.67000 1.248723 1.078380 2.923243
523 8.839400 10.26250 25.44850 1.836193 1.367232 5.685839
524 21.25810 14.57070 59.80430 8.626449 4.358735 33.10213
525 61.03070 33.88880 75.89290 28.84059 17.46701 55.83608
526 66.08010 42.65580 90.89820 38.90221 25.01732 83.86289
527 16.15210 12.18330 35.89420 3.590318 2.228433 11.04773
528 16.81840 33.00890 89.62090 18.85681 11.92060 80.72196
529 19.48710 46.21740 90.81250 22.33260 18.92903 83.51747
530 13.16120 40.50400 64.49980 11.85806 12.30238 39.27813
531 14.03000 68.48610 65.09770 20.47866 33.34474 41.90561
532 18.31920 71.07100 37.48260 16.56261 34.05843 14.25881
533 40.99620 76.68170 38.02510 24.03633 42.33039 15.01092
534 46.05380 85.41520 53.60590 32.87071 55.29589 29.21801
535 48.35070 86.11900 65.04170 36.91899 57.73778 43.63755
536 65.96680 90.37150 100.0000 60.57784 71.59048 107.6507
537 0.000000 62.21930 66.45810 17.54039 27.22934 43.00230
538 0.000000 68.13030 82.24440 24.41331 34.20300 68.34993
539 16.53690 82.94800 88.44480 34.49953 52.56636 81.41396
540 45.95250 87.48500 88.82770 43.97377 61.15019 82.65461
541 0.000000 19.55860 100.0000 20.58724 9.082835 103.4881
542 0.000000 19.70880 79.02030 12.50214 6.325505 60.86402
543 25.52170 24.10860 86.02270 17.69612 9.332962 73.00005
544 80.86150 0.000000 36.91420 31.31545 14.40154 11.81475
545 88.32940 7.875800 53.08710 40.06695 18.57227 25.29846
546 87.01540 12.93560 81.94200 47.26617 21.43294 66.29627
547 26.38800 82.03280 59.85030 26.69082 48.49050 36.38088
548 37.37730 82.77500 70.37790 32.47728 51.88467 50.15218
549 56.48850 83.57890 77.14120 43.02548 57.54332 61.00955
550 61.78880 100.0000 76.43990 55.07115 82.26832 61.24078
551 18.33260 27.22940 0.000000 3.078055 4.795254 0.485732
552 32.08260 36.21190 10.95700 6.953729 9.174104 1.868754
553 47.86430 46.78940 18.57040 14.85632 17.46275 4.128945
554 64.59800 54.72790 37.32850 27.36228 27.55697 13.30493
555 74.08640 55.14930 50.56170 35.77282 31.57637 24.28592
556 30.83860 16.77830 50.67450 8.616432 4.956945 22.70472
557 30.23130 39.67380 61.27900 13.60433 12.93079 35.34442
558 32.90300 56.57700 65.77120 19.60635 24.28354 42.39547
559 18.53360 53.75720 87.70880 22.97771 23.27989 77.87064
560 47.28910 59.05090 88.80710 32.51164 31.17629 79.84362
561 17.02510 31.89970 61.12150 9.996021 8.474877 35.03891
562 57.49840 50.92190 61.41750 26.88252 24.68574 36.48980
563 51.06370 56.72410 47.24010 21.96786 26.19567 20.75447
564 63.26450 59.11580 48.37530 29.36770 31.04353 21.95635
565 72.31340 63.05260 60.11990 39.02301 37.98211 35.34725
566 72.52170 71.66030 60.79110 42.56630 46.10424 36.84906
567 21.24440 11.55340 72.17610 11.54916 4.995638 49.26188
568 22.08060 11.07110 87.94590 16.81965 6.744382 76.69392
569 57.48470 9.080000 88.22820 28.80131 12.17535 77.34672
570 70.82040 62.89820 89.73900 47.09254 40.68765 82.51135
571 89.89020 70.92340 89.85600 64.77049 55.14322 82.98041
572 39.03700 6.251000 13.59080 6.343597 3.283401 1.958000
573 47.22960 74.12090 15.93970 23.26578 39.65841 4.991034
574 47.43550 89.29100 36.84130 32.79950 59.64638 15.42489
575 74.33400 92.29400 85.80100 61.27856 74.42718 77.15124
576 8.284400 21.08140 13.00630 1.794231 2.986061 1.957871
577 10.97000 20.78600 22.42750 2.434396 3.136702 4.570630
578 20.49730 29.14550 37.21840 5.793641 6.281300 12.09406
579 33.74020 31.00720 60.70880 12.85250 9.560356 34.52855
580 13.02130 0.000000 15.37270 1.211504 0.577066 2.265504
581 13.87150 4.238400 24.56360 1.973176 1.054885 5.318844
582 37.15400 8.269000 25.95760 6.578043 3.430088 5.924849
583 53.75050 13.67240 27.00500 13.37965 7.142977 6.591410
584 73.30210 16.31200 32.21050 25.54856 13.11455 9.162227
585 90.02330 53.66320 35.67230 46.02594 35.67142 12.50239
586 89.76540 58.72400 69.76560 54.17463 42.11407 48.29625
587 25.98110 87.36410 52.89270 27.83411 54.67483 28.44606
588 69.58950 87.09210 74.58120 51.49462 65.18205 56.53963
END_DATA
CAL    

DESCRIPTOR "Argyll Device Calibration State"
ORIGINATOR "Argyll dispread"
CREATED "Sat Aug 20 17:54:06 2022"
DEVICE_CLASS "DISPLAY"
COLOR_REP "RGB"

BEGIN_ARGYLL_DISPCAL_ARGS
-v2 -ql -m -w0.3127,0.329 -gs -f1.0 -k0 -A4.0 -d1 -c1 -yn -P0.467312348668,0.404761904762,2.11819595645
END_ARGYLL_DISPCAL_ARGS


NUMBER_OF_FIELDS 4
BEGIN_DATA_FORMAT
RGB_I RGB_R RGB_G RGB_B
END_DATA_FORMAT

NUMBER_OF_SETS 256
BEGIN_DATA
0.00000000 0.00000000 0.00000000 0.00000000
0.00392157 0.00859096 0.00864796 0.00909088
0.00784314 0.01637360 0.01643710 0.01736460
0.01176470 0.02345690 0.02348940 0.02492670
0.01568630 0.02993100 0.02990460 0.03186510
0.01960780 0.03587030 0.03576470 0.03825640
0.02352940 0.04132890 0.04112760 0.04416100
0.02745100 0.04636650 0.04606110 0.04962500
0.03137250 0.05104160 0.05062280 0.05470220
0.03529410 0.05542010 0.05487880 0.05945540
0.03921570 0.05957600 0.05889870 0.06395550
0.04313730 0.06356380 0.06273620 0.06825970
0.04705880 0.06742110 0.06642440 0.07241140
0.05098040 0.07117270 0.06998730 0.07643280
0.05490200 0.07484260 0.07345520 0.08034610
0.05882350 0.07844650 0.07684390 0.08417150
0.06274510 0.08200060 0.08016990 0.08793370
0.06666670 0.08551420 0.08344060 0.09164140
0.07058820 0.08900300 0.08667550 0.09530760
0.07450980 0.09247170 0.08987950 0.09893770
0.07843140 0.09594440 0.09308020 0.10256100
0.08235290 0.09942030 0.09628230 0.10618300
0.08627450 0.10289800 0.09948500 0.10980300
0.09019610 0.10638300 0.10270200 0.11343400
0.09411760 0.10986200 0.10592300 0.11706400
0.09803920 0.11332200 0.10914100 0.12068800
0.10196100 0.11676300 0.11235000 0.12429500
0.10588200 0.12018800 0.11556400 0.12789600
0.10980400 0.12358700 0.11877000 0.13147600
0.11372500 0.12695900 0.12196600 0.13503700
0.11764700 0.13029300 0.12514800 0.13856300
0.12156900 0.13360300 0.12831500 0.14206400
0.12549000 0.13689100 0.13147900 0.14555700
0.12941200 0.14015200 0.13463700 0.14903300
0.13333300 0.14338900 0.13778700 0.15249400
0.13725500 0.14660300 0.14093500 0.15594100
0.14117600 0.14978800 0.14407400 0.15936900
0.14509800 0.15295100 0.14719600 0.16278400
0.14902000 0.15610900 0.15031500 0.16620200
0.15294100 0.15926700 0.15343800 0.16962800
0.15686300 0.16241500 0.15656700 0.17305200
0.16078400 0.16555600 0.15969700 0.17647500
0.16470600 0.16870400 0.16282600 0.17990800
0.16862700 0.17186100 0.16596500 0.18335900
0.17254900 0.17501000 0.16911200 0.18681400
0.17647100 0.17815600 0.17224700 0.19027300
0.18039200 0.18130500 0.17538300 0.19374500
0.18431400 0.18446900 0.17852600 0.19724600
0.18823500 0.18766000 0.18169200 0.20078500
0.19215700 0.19087400 0.18488800 0.20436000
0.19607800 0.19409800 0.18809600 0.20795200
0.20000000 0.19733500 0.19130700 0.21156000
0.20392200 0.20058000 0.19452200 0.21517700
0.20784300 0.20384100 0.19774200 0.21881000
0.21176500 0.20712100 0.20097500 0.22246400
0.21568600 0.21041400 0.20422400 0.22612800
0.21960800 0.21369800 0.20747400 0.22978200
0.22352900 0.21697800 0.21070900 0.23343200
0.22745100 0.22026300 0.21394000 0.23708500
0.23137300 0.22354000 0.21717100 0.24072400
0.23529400 0.22680100 0.22038900 0.24434900
0.23921600 0.23006100 0.22359200 0.24798500
0.24313700 0.23333700 0.22680100 0.25164600
0.24705900 0.23663200 0.23002700 0.25533100
0.25098000 0.23992900 0.23326400 0.25902100
0.25490200 0.24322200 0.23649300 0.26271200
0.25882400 0.24650800 0.23971000 0.26640600
0.26274500 0.24979300 0.24291100 0.27010200
0.26666700 0.25306900 0.24609500 0.27378100
0.27058800 0.25633400 0.24925200 0.27745600
0.27451000 0.25960100 0.25239800 0.28113200
0.27843100 0.26288200 0.25554500 0.28481300
0.28235300 0.26618200 0.25870300 0.28849500
0.28627500 0.26949700 0.26187400 0.29215300
0.29019600 0.27280300 0.26505100 0.29577200
0.29411800 0.27610100 0.26821500 0.29936900
0.29803900 0.27941200 0.27137200 0.30297000
0.30196100 0.28275900 0.27454300 0.30659000
0.30588200 0.28614900 0.27775400 0.31022700
0.30980400 0.28958000 0.28101000 0.31387800
0.31372500 0.29304600 0.28430400 0.31755500
0.31764700 0.29656100 0.28763200 0.32125700
0.32156900 0.30012000 0.29100700 0.32498900
0.32549000 0.30373100 0.29442500 0.32875800
0.32941200 0.30739400 0.29789100 0.33256900
0.33333300 0.31111600 0.30140500 0.33643800
0.33725500 0.31489800 0.30498000 0.34034300
0.34117600 0.31870700 0.30860900 0.34427800
0.34509800 0.32254400 0.31226400 0.34824100
0.34902000 0.32640800 0.31594600 0.35222900
0.35294100 0.33030000 0.31965300 0.35623600
0.35686300 0.33420100 0.32338500 0.36024900
0.36078400 0.33811700 0.32712700 0.36427400
0.36470600 0.34204400 0.33088400 0.36829300
0.36862700 0.34596100 0.33465500 0.37230100
0.37254900 0.34987900 0.33842000 0.37631200
0.37647100 0.35381100 0.34218500 0.38033300
0.38039200 0.35775000 0.34596800 0.38436300
0.38431400 0.36170100 0.34975700 0.38841100
0.38823500 0.36568800 0.35355800 0.39249500
0.39215700 0.36972800 0.35739500 0.39662500
0.39607800 0.37382200 0.36129000 0.40080200
0.40000000 0.37792600 0.36524800 0.40498200
0.40392200 0.38197600 0.36924000 0.40910700
0.40784300 0.38597200 0.37318700 0.41317400
0.41176500 0.38994100 0.37707700 0.41720700
0.41568600 0.39390400 0.38093000 0.42122400
0.41960800 0.39785400 0.38476800 0.42522900
0.42352900 0.40179300 0.38859500 0.42922100
0.42745100 0.40572800 0.39241100 0.43322300
0.43137300 0.40966200 0.39623100 0.43723900
0.43529400 0.41361100 0.40005500 0.44127800
0.43921600 0.41757000 0.40389700 0.44534700
0.44313700 0.42150900 0.40776500 0.44942500
0.44705900 0.42543000 0.41162700 0.45349500
0.45098000 0.42935900 0.41547100 0.45756900
0.45490200 0.43329500 0.41932700 0.46166000
0.45882400 0.43722900 0.42320400 0.46576100
0.46274500 0.44117400 0.42707900 0.46987200
0.46666700 0.44511200 0.43096000 0.47400600
0.47058800 0.44904900 0.43483300 0.47814900
0.47451000 0.45298200 0.43870000 0.48231100
0.47843100 0.45691100 0.44256300 0.48649300
0.48235300 0.46083400 0.44642000 0.49069400
0.48627500 0.46475100 0.45027100 0.49491200
0.49019600 0.46868800 0.45411500 0.49915100
0.49411800 0.47264000 0.45796800 0.50343800
0.49803900 0.47657600 0.46184700 0.50773100
0.50196100 0.48049400 0.46571200 0.51202100
0.50588200 0.48439400 0.46955600 0.51630900
0.50980400 0.48828000 0.47338100 0.52059600
0.51372500 0.49215100 0.47718900 0.52488300
0.51764700 0.49600500 0.48097900 0.52916200
0.52156900 0.49985800 0.48474600 0.53343800
0.52549000 0.50369600 0.48850500 0.53770900
0.52941200 0.50753400 0.49224300 0.54196200
0.53333300 0.51137100 0.49597100 0.54621000
0.53725500 0.51518600 0.49969800 0.55043800
0.54117600 0.51898200 0.50340300 0.55463300
0.54509800 0.52276200 0.50708300 0.55880000
0.54902000 0.52652700 0.51074900 0.56294500
0.55294100 0.53029300 0.51439800 0.56708700
0.55686300 0.53406400 0.51804800 0.57123700
0.56078400 0.53781200 0.52171300 0.57537900
0.56470600 0.54152400 0.52537700 0.57947300
0.56862700 0.54521200 0.52902000 0.58352800
0.57254900 0.54889000 0.53264800 0.58756500
0.57647100 0.55254900 0.53627600 0.59159000
0.58039200 0.55617800 0.53990600 0.59559000
0.58431400 0.55978300 0.54352200 0.59956900
0.58823500 0.56338100 0.54712600 0.60352900
0.59215700 0.56696400 0.55073300 0.60747000
0.59607800 0.57053000 0.55433000 0.61139100
0.60000000 0.57409000 0.55791300 0.61530000
0.60392200 0.57764300 0.56148400 0.61919500
0.60784300 0.58118100 0.56504300 0.62306800
0.61176500 0.58470500 0.56857600 0.62691600
0.61568600 0.58822000 0.57208200 0.63074600
0.61960800 0.59171900 0.57556700 0.63455000
0.62352900 0.59519800 0.57902400 0.63832700
0.62745100 0.59867400 0.58245100 0.64209000
0.63137300 0.60215300 0.58587100 0.64584900
0.63529400 0.60565200 0.58929200 0.64962000
0.63921600 0.60919200 0.59272700 0.65342100
0.64313700 0.61277900 0.59619500 0.65725800
0.64705900 0.61641400 0.59970600 0.66113600
0.65098000 0.62009900 0.60326100 0.66505400
0.65490200 0.62382100 0.60686200 0.66900200
0.65882400 0.62749800 0.61050400 0.67290200
0.66274500 0.63110700 0.61410800 0.67672800
0.66666700 0.63464800 0.61764400 0.68048000
0.67058800 0.63812200 0.62110900 0.68415300
0.67451000 0.64153800 0.62450500 0.68775600
0.67843100 0.64491400 0.62783400 0.69130500
0.68235300 0.64826300 0.63111300 0.69481000
0.68627500 0.65159600 0.63435900 0.69827800
0.69019600 0.65491900 0.63758500 0.70171400
0.69411800 0.65824900 0.64079700 0.70514100
0.69803900 0.66157500 0.64401700 0.70855600
0.70196100 0.66488500 0.64724000 0.71194600
0.70588200 0.66818700 0.65045200 0.71531300
0.70980400 0.67148400 0.65366000 0.71867700
0.71372500 0.67477700 0.65687200 0.72203900
0.71764700 0.67807800 0.66008800 0.72540700
0.72156900 0.68138100 0.66331600 0.72879000
0.72549000 0.68467300 0.66655500 0.73217500
0.72941200 0.68796400 0.66978900 0.73556200
0.73333300 0.69125400 0.67302300 0.73896400
0.73725500 0.69454300 0.67626300 0.74237800
0.74117600 0.69783400 0.67951000 0.74580600
0.74509800 0.70114500 0.68276900 0.74926200
0.74902000 0.70447000 0.68605900 0.75275600
0.75294100 0.70780600 0.68937100 0.75627700
0.75686300 0.71115200 0.69269900 0.75982500
0.76078400 0.71451000 0.69604500 0.76339500
0.76470600 0.71789700 0.69941000 0.76698900
0.76862700 0.72130700 0.70280900 0.77062200
0.77254900 0.72473700 0.70623500 0.77428800
0.77647100 0.72819100 0.70967800 0.77798800
0.78039200 0.73166400 0.71314200 0.78173200
0.78431400 0.73516000 0.71662600 0.78551600
0.78823500 0.73869200 0.72013000 0.78934800
0.79215700 0.74227100 0.72366600 0.79324000
0.79607800 0.74589900 0.72723900 0.79720200
0.80000000 0.74954600 0.73085100 0.80123100
0.80392200 0.75315500 0.73446400 0.80525700
0.80784300 0.75672600 0.73802200 0.80926100
0.81176500 0.76026500 0.74152500 0.81324300
0.81568600 0.76379000 0.74498400 0.81721700
0.81960800 0.76732000 0.74841900 0.82120000
0.82352900 0.77085200 0.75185400 0.82520200
0.82745100 0.77436900 0.75528600 0.82920300
0.83137300 0.77787200 0.75870700 0.83319700
0.83529400 0.78137300 0.76212000 0.83718900
0.83921600 0.78487800 0.76553800 0.84118000
0.84313700 0.78838100 0.76896600 0.84516200
0.84705900 0.79188300 0.77240100 0.84912900
0.85098000 0.79539500 0.77584900 0.85309300
0.85490200 0.79892000 0.77932600 0.85705600
0.85882400 0.80244800 0.78282900 0.86100500
0.86274500 0.80595200 0.78634400 0.86490400
0.86666700 0.80943400 0.78985100 0.86876000
0.87058800 0.81290900 0.79335000 0.87259400
0.87451000 0.81638100 0.79685200 0.87640900
0.87843100 0.81985200 0.80035600 0.88020800
0.88235300 0.82332400 0.80386500 0.88400100
0.88627500 0.82681500 0.80738000 0.88780800
0.89019600 0.83033000 0.81091900 0.89162700
0.89411800 0.83384300 0.81447300 0.89542900
0.89803900 0.83735000 0.81801400 0.89921800
0.90196100 0.84086000 0.82154200 0.90300600
0.90588200 0.84439600 0.82508100 0.90681900
0.90980400 0.84796100 0.82864900 0.91065200
0.91372500 0.85154300 0.83224300 0.91448900
0.91764700 0.85512800 0.83584100 0.91832800
0.92156900 0.85872900 0.83945000 0.92218800
0.92549000 0.86235100 0.84308600 0.92606400
0.92941200 0.86598200 0.84673700 0.92994400
0.93333300 0.86962300 0.85038800 0.93383700
0.93725500 0.87327700 0.85404700 0.93773300
0.94117600 0.87693400 0.85770100 0.94163100
0.94509800 0.88060300 0.86136400 0.94552800
0.94902000 0.88427300 0.86502600 0.94942200
0.95294100 0.88794700 0.86869600 0.95331000
0.95686300 0.89162600 0.87237200 0.95719400
0.96078400 0.89531100 0.87605500 0.96107700
0.96470600 0.89900200 0.87974000 0.96496400
0.96862700 0.90270300 0.88343100 0.96885600
0.97254900 0.90641300 0.88712800 0.97275100
0.97647100 0.91013200 0.89083400 0.97664900
0.98039200 0.91386000 0.89454800 0.98055000
0.98431400 0.91759600 0.89827100 0.98445500
0.98823500 0.92134200 0.90200100 0.98836200
0.99215700 0.92509700 0.90574000 0.99227200
0.99607800 0.92886000 0.90948800 0.99618600
1.00000000 0.93263300 0.91324300 1.00000000
END_DATA
