CTI3   

DESCRIPTOR "Argyll Calibration Target chart information 3"
ORIGINATOR "Argyll dispread"
CREATED "Sat Aug 20 17:54:06 2022"
DEVICE_CLASS "DISPLAY"
SINGLE_DIM_STEPS "21"
COMP_GREY_STEPS "61"
DARK_REGION_EMPHASIS "1.6"
COLOR_REP "RGB_XYZ"
TARGET_INSTRUMENT "X-Rite i1 DisplayPro, ColorMunki Display"
DISPLAY_TYPE_REFRESH "NO"
DISPLAY_TYPE_BASE_ID "1"
INSTRUMENT_TYPE_SPECTRAL "NO"
LUMINANCE_XYZ_CDM2 "72.829422 76.549853 83.507553"
NORMALIZED_TO_Y_100 "YES"
VIDEO_LUT_CALIBRATION_POSSIBLE "YES"

BEGIN_ARGYLL_COLPROF_ARGS
-v -qh -aX -bn -C "No copyright. Created with DisplayCAL 3.8.9.3 and ArgyllCMS 2.1.2" -M "KOIOS K2721UG"
END_ARGYLL_COLPROF_ARGS

OBSERVER "1931_2"
USE_BLACK_POINT_COMPENSATION "NO"
BLACK_POINT_CORRECTION "0.0"
HIRES_B2A "YES"
HIRES_B2A_SIZE "-1"
SMOOTH_B2A "YES"
PATCH_SEQUENCE "OPTIMIZE_DISPLAY_RESPONSE_DELAY"

NUMBER_OF_FIELDS 7
BEGIN_DATA_FORMAT
SAMPLE_ID RGB_R RGB_G RGB_B XYZ_X XYZ_Y XYZ_Z
END_DATA_FORMAT

NUMBER_OF_SETS 588
BEGIN_DATA
1 100.0000 100.0000 100.0000 95.13986 100.0000 109.0891
2 1.960800 1.960800 1.960800 0.202916 0.212890 0.293160
3 3.921600 3.921600 3.921600 0.379342 0.400994 0.494776
4 5.882400 5.882400 5.882400 0.564025 0.583408 0.701064
5 9.803900 9.803900 9.803900 1.024100 1.054462 1.197854
6 13.72600 13.72600 13.72600 1.705616 1.794641 1.965401
7 17.64700 17.64700 17.64700 2.620354 2.766564 3.029224
8 21.56900 21.56900 21.56900 3.709056 3.927099 4.310853
9 25.49000 25.49000 25.49000 5.070636 5.308611 5.954823
10 29.41200 29.41200 29.41200 6.555383 6.861611 7.728967
11 33.33300 33.33300 33.33300 8.414073 8.843298 9.895330
12 37.25500 37.25500 37.25500 10.62779 11.12156 12.38241
13 41.17600 41.17600 41.17600 13.15979 13.83939 15.13095
14 45.09800 45.09800 45.09800 16.08099 16.94889 18.50042
15 49.02000 49.02000 49.02000 19.20437 20.34994 21.93524
16 52.94100 52.94100 52.94100 22.82141 24.15504 26.12984
17 56.86300 56.86300 56.86300 26.97981 28.32273 31.03445
18 60.78400 60.78400 60.78400 31.15369 32.73932 35.98049
19 64.70600 64.70600 64.70600 35.85097 37.63897 41.51600
20 68.62700 68.62700 68.62700 40.85976 42.91853 46.83649
21 72.54900 72.54900 72.54900 46.12370 48.34310 52.61478
22 76.47100 76.47100 76.47100 51.58951 54.36729 59.08729
23 80.39200 80.39200 80.39200 58.13808 61.30293 66.55160
24 84.31400 84.31400 84.31400 64.31061 67.70448 73.76442
25 88.23500 88.23500 88.23500 70.99447 74.83708 81.47824
26 92.15700 92.15700 92.15700 78.20438 82.26024 90.18195
27 96.07800 96.07800 96.07800 86.57622 91.13468 99.63708
28 0.000000 0.000000 16.30430 0.568476 0.268420 2.612035
29 0.000000 0.000000 19.66290 0.732639 0.324458 3.487232
30 18.89600 0.000000 34.35100 3.415048 1.423046 10.02080
31 27.05250 0.000000 59.19420 8.874120 3.446454 32.02710
32 39.22210 0.000000 78.96060 17.30479 6.708538 60.05215
33 0.000000 43.57140 75.87360 14.70935 14.65518 55.01182
34 0.000000 58.07990 84.27350 21.55222 25.52506 71.22699
35 0.000000 61.40900 100.0000 29.04955 30.62373 105.2102
36 100.0000 28.88820 0.000000 49.17207 26.83592 0.990278
37 100.0000 70.51690 23.89170 61.07299 54.84352 7.781171
38 100.0000 74.40020 52.21840 66.18248 59.85949 27.24210
39 13.15790 0.000000 0.000000 0.862738 0.462109 0.210931
40 16.30430 0.000000 0.000000 1.233075 0.634959 0.214596
41 19.66290 0.000000 0.000000 1.601736 0.806618 0.218461
42 23.25580 0.000000 0.000000 2.155611 1.065142 0.223860
43 27.10840 0.000000 0.000000 2.792362 1.362168 0.230160
44 31.25000 0.000000 0.000000 3.732267 1.801219 0.239493
45 35.71430 0.000000 0.000000 4.781769 2.291075 0.249943
46 37.87990 0.000000 0.000000 5.480553 2.616504 0.256543
47 40.54050 0.000000 0.000000 6.214425 2.958946 0.263685
48 45.77470 0.000000 0.000000 8.197331 3.884773 0.283723
49 51.47060 0.000000 0.000000 10.48855 4.953492 0.306199
50 57.69230 0.000000 0.000000 13.73125 6.466443 0.338308
51 64.51610 0.000000 0.000000 17.61303 8.276804 0.377901
52 72.03390 0.000000 0.000000 22.53875 10.57665 0.427424
53 80.35710 0.000000 0.000000 28.70905 13.45324 0.488177
54 81.45190 100.0000 0.000000 57.91147 85.16939 5.198495
55 80.39330 100.0000 32.41380 58.63265 85.18839 14.23176
56 61.06840 100.0000 0.000000 43.70616 78.32153 5.054632
57 100.0000 100.0000 30.33970 76.87605 93.81671 13.19956
58 100.0000 100.0000 86.40530 89.35949 98.02837 79.35267
59 0.000000 13.15790 0.000000 0.546411 1.217690 0.277237
60 0.000000 16.30430 0.000000 0.739404 1.706252 0.309980
61 0.000000 19.66290 0.000000 1.002387 2.370177 0.353829
62 0.000000 23.25580 0.000000 1.304056 3.135636 0.404415
63 0.000000 27.10840 0.000000 1.689281 4.113548 0.469082
64 0.000000 31.25000 0.000000 2.198223 5.406601 0.556209
65 0.000000 35.71430 0.000000 2.842758 7.041444 0.664867
66 0.000000 40.54050 0.000000 3.717855 9.283919 0.800366
67 0.000000 45.77470 0.000000 4.925263 12.33761 1.014332
68 0.000000 51.47060 0.000000 6.330736 15.88821 1.250967
69 0.000000 57.69230 0.000000 8.142662 20.40150 1.549095
70 0.000000 64.51610 0.000000 10.42819 26.32406 1.942484
71 0.000000 72.03390 0.000000 13.18016 33.32092 2.399925
72 0.000000 80.35710 0.000000 17.04971 43.10591 3.048119
73 0.000000 89.62260 0.000000 21.73875 54.99533 3.840438
74 0.000000 100.0000 0.000000 27.97670 70.89815 4.884574
75 34.28220 100.0000 0.000000 32.28125 72.93562 4.932531
76 64.81260 100.0000 89.16240 61.09946 84.66257 84.27732
77 0.000000 0.000000 7.425700 0.236322 0.154537 0.863931
78 0.000000 0.000000 10.20410 0.299275 0.176151 1.196261
79 0.000000 0.000000 13.15790 0.424178 0.218647 1.852434
80 23.78610 0.000000 12.34190 2.506216 1.196058 1.603656
81 0.000000 0.000000 0.000000 0.111488 0.111031 0.204690
82 0.000000 0.000000 4.807700 0.175451 0.133432 0.543306
83 0.000000 0.000000 27.10840 1.264420 0.506847 6.280300
84 0.000000 0.000000 31.25000 1.631800 0.633204 8.218720
85 0.000000 0.000000 35.71430 2.087600 0.788420 10.61835
86 0.000000 0.000000 40.54050 2.650558 0.981136 13.58629
87 0.000000 0.000000 45.77470 3.466309 1.259528 17.90266
88 0.000000 0.000000 51.47060 4.418764 1.585466 22.90669
89 0.000000 0.000000 57.69230 5.754812 2.041817 29.94803
90 0.000000 0.000000 64.51610 7.424368 2.613217 38.77908
91 0.000000 0.000000 72.03390 9.318337 3.255252 48.73948
92 0.000000 0.000000 80.35710 11.93976 4.149063 62.57383
93 0.000000 0.000000 89.62260 15.22659 5.278095 79.92103
94 0.000000 0.000000 100.0000 19.64574 6.752415 103.2151
95 0.000000 34.75980 100.0000 22.33858 13.51034 103.7840
96 55.83250 57.95840 100.0000 40.85189 33.89241 104.8364
97 0.000000 2.336400 0.000000 0.145562 0.201548 0.210566
98 3.144700 3.144700 3.144700 0.283428 0.295958 0.392197
99 3.968300 3.968300 3.968300 0.379231 0.400648 0.494681
100 4.807700 4.807700 4.807700 0.446418 0.475433 0.566639
101 5.663400 5.663400 5.663400 0.521470 0.533106 0.655861
102 6.535900 6.535900 6.535900 0.630948 0.670082 0.792935
103 7.425700 7.425700 7.425700 0.732917 0.780996 0.905423
104 8.333300 8.333300 8.333300 0.823406 0.854479 1.014865
105 9.259300 9.259300 9.259300 0.985155 1.037161 1.139680
106 10.20410 10.20410 10.20410 1.051813 1.104253 1.259824
107 11.16840 11.16840 11.16840 1.178810 1.237934 1.397007
108 12.15280 12.15280 12.15280 1.397113 1.421128 1.658837
109 13.15790 13.15790 13.15790 1.636174 1.700576 1.962806
110 14.18440 14.18440 14.18440 1.785169 1.832655 2.071330
111 15.23300 15.23300 15.23300 2.048707 2.144945 2.414189
112 16.30430 16.30430 16.30430 2.354078 2.420870 2.769131
113 17.39930 17.39930 17.39930 2.506989 2.639914 2.906466
114 18.51850 18.51850 18.51850 2.845903 2.949243 3.305040
115 19.66290 19.66290 19.66290 3.164432 3.335902 3.713565
116 20.83330 20.83330 20.83330 3.544786 3.678144 4.159212
117 22.03070 22.03070 22.03070 3.860043 4.091114 4.473106
118 23.25580 23.25580 23.25580 4.261436 4.452086 4.937329
119 24.50980 24.50980 24.50980 4.650743 4.920156 5.447420
120 25.79360 25.79360 25.79360 5.257950 5.507248 6.147334
121 27.10840 27.10840 27.10840 5.636273 5.883687 6.711953
122 28.45530 28.45530 28.45530 6.236358 6.607137 7.323219
123 29.83540 29.83540 29.83540 6.754101 7.085619 7.939725
124 58.62820 41.67410 57.64400 24.37278 18.93257 31.31541
125 100.0000 100.0000 100.0000 95.29784 100.1419 109.0891
126 31.25000 31.25000 31.25000 7.482305 7.776226 8.783632
127 35.71430 35.71430 35.71430 9.697157 10.12754 11.38795
128 37.28070 37.28070 37.28070 10.63900 11.13305 12.39855
129 38.88890 38.88890 38.88890 11.63331 12.20136 13.47198
130 40.54050 40.54050 40.54050 12.66405 13.31818 14.59575
131 42.23740 42.23740 42.23740 14.03722 14.77650 16.06303
132 43.98150 43.98150 43.98150 15.22586 16.03028 17.59397
133 45.77470 45.77470 45.77470 16.69686 17.64365 19.24065
134 47.61910 47.61910 47.61910 17.95948 18.99212 20.59801
135 49.51690 49.51690 49.51690 19.61199 20.75653 22.32362
136 51.47060 51.47060 51.47060 21.39645 22.63178 24.54271
137 53.48260 53.48260 53.48260 23.20190 24.34459 26.62783
138 55.55560 55.55560 55.55560 25.73799 26.96515 29.71262
139 57.69230 57.69230 57.69230 27.87391 29.24342 32.04425
140 59.89580 59.89580 59.89580 30.21898 31.72103 34.97339
141 62.16930 62.16930 62.16930 33.23067 34.91939 38.22837
142 64.51610 64.51610 64.51610 35.96102 37.68301 41.48411
143 66.93990 66.93990 66.93990 39.16319 41.17641 45.05469
144 69.44440 69.44440 69.44440 42.09739 44.27597 48.13857
145 86.48170 100.0000 87.96510 76.84846 92.09641 82.17525
146 85.75850 100.0000 100.0000 81.08092 93.38994 108.6965
147 100.0000 100.0000 100.0000 94.92936 99.85642 108.8417
148 72.03390 72.03390 72.03390 45.49578 47.56779 52.11483
149 74.71260 74.71260 74.71260 49.34168 51.68491 56.09742
150 86.41970 86.41970 86.41970 67.74665 71.43850 77.49858
151 89.62260 89.62260 89.62260 74.05448 78.03701 84.96091
152 92.94870 92.94870 92.94870 79.77576 83.95783 91.92430
153 96.40520 96.40520 96.40520 87.67766 92.19885 100.8794
154 100.0000 25.52770 23.36250 49.78359 26.25222 5.680287
155 89.62260 0.000000 0.000000 36.60327 17.14335 0.568206
156 100.0000 0.000000 0.000000 47.54890 22.23254 0.680646
157 100.0000 81.57640 0.000000 64.94732 66.78757 3.633853
158 100.0000 100.0000 0.000000 75.39674 93.25676 5.385402
159 24.74910 42.21040 0.000000 6.475799 11.48795 0.909255
160 44.85520 56.33290 0.000000 15.50632 23.18988 1.569382
161 57.50660 100.0000 27.26910 43.22983 78.00312 11.39143
162 100.0000 100.0000 52.42430 80.12320 94.94593 30.18745
163 100.0000 100.0000 72.52190 84.94116 96.44546 55.80855
164 0.000000 100.0000 49.67570 32.19663 72.55560 26.39304
165 0.000000 100.0000 68.22290 36.30213 73.78371 48.68866
166 33.64420 100.0000 73.24510 42.07151 76.32485 56.12611
167 80.74850 100.0000 74.22790 67.37203 88.19345 57.42817
168 57.76380 49.39750 0.000000 19.58723 21.15700 1.309923
169 72.80250 50.26540 59.56320 35.66299 28.51221 34.15409
170 100.0000 28.30330 54.18980 54.10809 28.44605 27.04069
171 100.0000 49.89810 55.93250 58.73985 39.25522 30.38334
172 100.0000 65.66970 56.22180 63.65584 51.63344 31.27511
173 100.0000 47.78940 0.000000 52.88132 35.96655 1.590970
174 100.0000 65.11820 0.000000 57.98493 49.22437 2.473969
175 0.000000 75.23260 100.0000 34.29360 43.78290 106.0959
176 0.000000 86.97000 100.0000 40.16595 58.65516 107.0008
177 36.66060 86.98880 100.0000 45.40512 61.19880 107.2117
178 100.0000 87.44610 100.0000 87.44706 80.96880 107.3974
179 0.000000 0.000000 0.000000 0.111296 0.111038 0.204528
180 54.07270 0.000000 35.24310 13.88415 6.295324 10.64345
181 55.36300 0.000000 69.61230 21.26840 8.897968 46.08583
182 57.89910 23.70020 100.0000 35.17503 16.65274 103.8887
183 78.81400 59.54090 100.0000 56.43409 42.12736 105.4812
184 100.0000 71.01280 100.0000 79.93453 61.88762 106.1986
185 0.000000 0.000000 0.000000 0.111478 0.111034 0.204707
186 0.764500 0.764500 0.764500 0.129829 0.131015 0.222074
187 18.00640 9.058700 0.000000 1.655138 1.329384 0.257580
188 53.62410 19.77870 0.000000 12.55962 7.790246 0.471221
189 63.88300 39.38730 42.01290 23.50684 17.87287 15.79246
190 70.37480 38.13860 54.15400 29.71275 20.04259 26.86936
191 27.97120 40.74420 18.61370 7.340452 11.19047 3.832555
192 47.23620 50.40000 31.25890 16.46628 20.21484 9.545027
193 49.37320 74.00890 77.71840 34.95281 43.92951 60.65593
194 100.0000 0.000000 19.42670 47.94800 22.35243 4.053413
195 100.0000 0.000000 35.01760 49.21158 22.78182 10.87080
196 100.0000 0.000000 48.51700 51.20807 23.47113 21.03231
197 100.0000 0.000000 63.20280 54.31168 24.51795 37.65622
198 100.0000 0.000000 80.17230 59.14421 26.17304 62.71849
199 100.0000 27.02820 85.12030 62.53673 30.96139 72.18110
200 31.96210 27.40370 0.000000 5.501985 6.033677 0.519130
201 44.28980 28.82010 0.000000 9.481772 8.251959 0.586371
202 73.31750 36.92780 0.000000 26.29392 18.52058 0.936727
203 74.59340 59.23920 77.34680 43.79837 36.90976 58.91310
204 38.53720 0.000000 100.0000 25.32248 9.401376 103.4210
205 68.51460 0.000000 100.0000 39.93532 16.22594 103.5605
206 100.0000 0.000000 100.0000 67.05134 28.84812 104.1026
207 100.0000 30.63900 100.0000 69.02860 34.21481 104.4108
208 100.0000 41.25010 26.88020 52.49852 32.50013 7.659359
209 100.0000 51.05190 42.65760 56.66663 39.18269 17.34351
210 59.28030 38.74230 0.000000 18.06466 15.45584 0.914286
211 67.17230 47.13520 25.41160 25.71838 22.76346 6.834926
212 69.41190 60.03140 29.94790 31.17282 32.73637 9.352247
213 32.80450 23.60280 100.0000 25.09120 11.92202 103.9634
214 31.42790 42.19150 100.0000 27.56665 19.01860 104.0448
215 0.000000 32.30870 76.72750 13.00739 9.437719 56.68803
216 30.68160 52.96300 76.96010 21.12629 22.57966 57.77774
217 46.23780 69.24960 100.0000 40.60812 42.18337 105.7242
218 56.41940 80.15800 100.0000 50.03805 56.09372 106.8068
219 20.65240 33.40980 48.35250 8.079164 8.435544 20.55453
220 38.97830 71.49730 50.44100 23.12425 37.31445 24.97869
221 71.81400 77.35520 52.44150 42.57518 51.22327 27.51685
222 81.83270 67.16190 0.000000 41.58664 43.17895 2.428254
223 100.0000 81.97310 42.76710 68.17547 68.49393 19.36826
224 100.0000 83.20040 71.65580 75.30021 72.50601 52.82283
225 33.07110 14.36520 0.000000 4.553750 3.225934 0.327491
226 46.65820 25.97270 13.02750 10.43409 8.022405 2.135757
227 49.26270 28.39350 29.35310 12.91195 9.601149 7.796154
228 72.61900 31.44780 42.60500 28.06734 17.25388 16.20715
229 4.807700 0.000000 0.000000 0.275666 0.188068 0.206074
230 7.425700 0.000000 0.000000 0.413277 0.252407 0.207897
231 10.20410 0.000000 0.000000 0.579803 0.329912 0.209920
232 0.000000 4.807700 0.000000 0.214674 0.373833 0.222642
233 0.000000 7.425700 0.000000 0.299588 0.590649 0.237342
234 0.000000 10.20410 0.000000 0.386545 0.811848 0.250821
235 0.000000 100.0000 27.65390 29.29084 71.49323 11.37008
236 34.38210 100.0000 34.53760 34.53559 73.94627 15.07223
237 64.41480 100.0000 48.20230 49.55717 80.67942 25.44181
238 0.000000 16.42470 58.99690 6.694500 3.764767 31.67216
239 44.06520 21.24130 70.48880 17.63524 9.338762 47.66574
240 64.44260 23.31790 83.38580 31.84625 15.87533 68.92129
241 0.000000 0.000000 23.25580 0.950100 0.399237 4.633658
242 62.04790 0.000000 27.49450 17.35143 8.010075 6.527197
243 75.12340 0.000000 18.97650 25.50593 11.88336 3.535208
244 76.40140 0.000000 64.85750 33.08984 14.57636 39.53275
245 100.0000 52.59540 70.54390 63.23281 42.50266 49.52408
246 39.32640 0.000000 18.78080 6.481955 3.011319 3.332176
247 39.66400 0.000000 34.90850 7.951967 3.532033 10.33374
248 47.09400 14.58840 41.67510 12.06659 6.405965 14.86394
249 78.64520 42.00250 100.0000 51.78053 30.23908 104.8561
250 100.0000 52.65760 100.0000 73.80633 46.18094 105.2836
251 0.000000 10.94960 16.29390 0.884459 1.067262 2.686267
252 0.000000 30.30040 16.70270 2.562520 5.312097 2.982731
253 27.32850 60.36870 62.28410 18.83637 26.53457 37.93365
254 0.000000 39.48630 35.78630 5.604493 9.667115 11.35857
255 35.86700 46.87850 34.96970 12.02757 16.20675 11.33348
256 36.46690 50.60910 53.81980 16.07561 19.64717 26.81026
257 17.95200 20.57330 50.20090 6.559511 4.574720 22.33061
258 45.88720 25.56530 60.36790 16.16584 9.849309 33.97775
259 57.60490 58.63830 80.77520 34.65539 32.47406 65.43327
260 67.41610 72.84500 100.0000 53.26826 50.80220 106.1719
261 100.0000 100.0000 100.0000 94.88797 99.75879 108.8406
262 0.000000 0.000000 2.336400 0.134724 0.119441 0.329734
263 0.000000 16.65700 13.62280 1.057090 1.822792 1.976402
264 0.000000 73.69700 26.07580 15.08924 35.66850 8.196966
265 32.86520 100.0000 53.37270 36.93048 74.63761 30.27754
266 55.77540 100.0000 60.96430 47.52851 79.36993 39.48803
267 51.67260 59.11270 24.38600 20.34664 27.18153 6.804162
268 100.0000 63.97590 36.87700 59.92389 49.02884 14.00583
269 100.0000 69.36910 70.39220 68.89824 56.88677 50.42392
270 100.0000 78.36050 84.33960 77.04500 67.84960 73.82037
271 22.76100 29.18400 19.54870 4.580729 5.908672 3.888375
272 30.49560 37.30130 30.29360 8.101069 10.02315 8.327523
273 30.26190 61.36600 31.55620 14.28114 25.63111 10.02239
274 34.62120 78.60880 0.000000 20.43935 42.59487 2.921869
275 56.44570 78.87840 0.000000 29.37683 47.20237 3.044679
276 81.71600 82.58250 0.000000 47.98675 60.12107 3.559903
277 0.000000 14.59910 29.05270 1.921286 1.832568 7.178034
278 18.86350 19.94540 33.22540 4.218094 3.691140 9.575660
279 32.70040 32.70040 32.70040 7.993636 8.398781 9.463733
280 34.18800 34.18800 34.18800 8.870723 9.336141 10.40425
281 44.63120 35.98560 55.71870 16.10063 12.87178 28.76347
282 0.000000 45.73080 30.23050 6.397945 12.93271 8.547254
283 0.000000 59.37020 52.31240 13.11513 23.15783 25.37647
284 0.000000 79.91970 78.67060 28.36286 46.67132 63.03716
285 0.000000 100.0000 85.51650 41.63948 75.54843 76.72560
286 34.59530 100.0000 87.65550 47.18460 78.10747 81.64908
287 0.000000 26.04620 26.82020 2.730461 4.282255 6.412809
288 0.000000 31.32410 49.63600 6.238004 6.850346 21.73515
289 0.000000 43.21100 49.30060 8.295281 12.21534 21.76185
290 0.000000 48.12520 100.0000 25.19392 20.75870 104.6069
291 30.32160 57.42880 100.0000 31.33972 28.87134 105.1457
292 0.000000 24.81530 52.74980 6.092318 5.122651 24.88502
293 33.84400 29.00620 73.60160 15.99458 10.12747 52.18518
294 77.48540 77.48540 77.48540 53.57435 56.10340 61.32048
295 80.35710 80.35710 80.35710 58.21329 61.24956 66.54955
296 83.33330 83.33330 83.33330 62.75078 66.04774 71.52606
297 28.26550 39.23770 42.93730 9.480083 11.27484 16.14206
298 33.76020 41.31430 81.27960 20.41771 16.06230 65.12699
299 56.20970 42.20050 100.0000 37.06341 23.46115 104.4708
300 31.80140 0.000000 45.48830 7.097794 2.956896 17.77147
301 74.61470 0.000000 48.45430 28.13766 12.70580 20.64481
302 1.543200 1.543200 1.543200 0.167724 0.172662 0.272081
303 2.336400 2.336400 2.336400 0.228738 0.237818 0.337554
304 0.000000 50.78730 21.03700 6.963361 15.93608 4.992303
305 0.000000 62.90500 39.49550 12.26189 25.65900 14.85516
306 0.000000 78.50780 63.33090 22.98271 42.89841 39.77909
307 0.000000 100.0000 100.0000 47.61841 77.48600 107.9480
308 36.07460 100.0000 100.0000 52.66577 80.03877 108.1620
309 70.57460 18.02280 10.98900 22.69613 12.18436 1.696682
310 71.17280 26.68270 27.97970 24.58674 14.73937 7.117327
311 85.38460 37.32850 33.40650 37.79595 23.92088 10.39667
312 86.74810 51.41210 46.91000 44.06795 33.41533 20.82239
313 88.49350 66.56360 55.87470 52.27844 47.28312 30.70033
314 88.46250 74.28090 70.19840 58.58973 55.32300 49.81051
315 90.99020 95.81470 88.71870 78.09214 86.92463 83.06238
316 11.65950 13.75210 0.000000 1.193898 1.587652 0.288730
317 22.61900 18.69170 0.000000 2.909702 3.109332 0.360572
318 33.17390 23.35670 9.877700 5.620167 5.260186 1.409014
319 51.73140 43.01570 27.10980 16.22796 16.35296 7.267140
320 80.27780 70.40530 54.93470 46.90059 47.67527 30.00803
321 84.50910 70.10480 75.65960 54.94465 50.44324 57.23219
322 89.31400 81.68580 89.36930 69.25487 66.98548 83.35903
323 15.20630 8.212700 45.31890 4.624361 2.236036 17.83586
324 18.08690 54.84100 45.16860 11.96706 20.16512 18.88795
325 43.35920 60.03150 45.06470 19.67305 27.07567 19.27237
326 89.41230 52.47130 12.17970 43.18207 34.05403 3.113190
327 100.0000 52.73310 21.95430 54.96179 39.61885 5.976374
328 62.86220 85.59570 42.02670 39.31112 58.59595 18.63978
329 70.07780 89.02190 57.09710 48.71913 66.27725 34.04175
330 86.44990 90.33270 56.43500 61.28813 73.53953 33.50485
331 16.47530 20.21910 11.66790 2.441477 3.128686 1.680160
332 17.11940 32.00930 16.25240 4.005477 6.532654 2.932837
333 34.13690 33.49780 19.84980 7.530220 8.567576 4.158755
334 48.88240 38.50920 34.29310 14.76623 13.57092 10.57637
335 4.607000 12.86060 12.43080 0.969826 1.328045 1.750577
336 22.09410 18.06650 25.83820 3.781560 3.241927 5.988388
337 52.91010 28.09910 53.88830 18.01611 11.56541 26.07799
338 72.27020 46.70970 68.39750 36.16854 26.58451 45.15342
339 71.41340 73.22130 81.22250 48.41796 49.77638 67.25137
340 71.27880 82.56400 92.39700 57.11821 62.64247 89.92654
341 83.37220 87.74810 100.0000 72.18436 74.27503 107.5183
342 0.000000 0.000000 0.000000 0.111437 0.111028 0.204564
343 22.96120 48.66490 49.58920 11.77660 16.64646 22.16569
344 32.67130 68.51910 58.60640 22.01014 34.37553 33.54793
345 32.97730 72.94000 73.99340 27.56529 39.94318 54.49532
346 78.93760 82.02590 73.55670 55.43981 61.59105 55.42582
347 91.36890 85.60890 74.51500 67.51296 70.99740 56.64055
348 100.0000 88.66010 85.67850 82.18279 80.59501 76.43859
349 82.32710 47.47570 53.19080 40.76401 29.56937 26.67598
350 85.37840 74.77350 100.0000 67.16958 59.00916 106.3455
351 41.70330 6.255500 61.16950 13.42559 5.817056 34.67532
352 60.66870 12.90410 64.09630 23.20393 10.85426 38.47197
353 65.78500 35.71460 66.99440 29.56135 18.69710 43.48084
354 22.58180 59.36660 39.32500 13.06289 23.52479 14.54139
355 25.67860 80.48440 74.82010 29.79191 48.03376 56.33506
356 0.000000 13.70720 40.01790 3.083140 2.164064 13.49374
357 11.56340 22.79250 42.41150 4.695236 4.315254 15.38243
358 26.98390 27.11680 46.06180 7.865729 6.643924 18.48315
359 86.20760 43.19030 65.12400 45.55645 29.32730 41.05935
360 100.0000 49.85290 83.64960 66.26084 41.81057 70.07207
361 77.14930 0.000000 84.80280 39.57444 16.88631 70.55793
362 82.38170 20.56730 100.0000 51.31047 23.50971 104.2537
363 28.06240 9.645700 34.86450 5.296785 2.836559 10.39085
364 30.50640 27.88250 37.80980 7.578982 6.882926 12.37487
365 33.20690 38.07990 48.80460 11.31401 11.55032 21.13527
366 45.47270 46.51050 64.31700 20.71657 19.42471 39.82741
367 58.61050 61.01320 72.11140 33.10599 33.59912 51.07655
368 21.53870 46.69480 29.19630 8.303331 14.27600 8.050841
369 37.24840 52.84410 30.60270 13.54633 20.19338 9.195656
370 75.09540 53.78740 40.00300 34.16660 30.00332 15.09334
371 43.39420 16.44700 25.90940 9.145431 5.526520 6.048650
372 45.39650 20.54340 35.51890 11.14583 6.989968 11.08177
373 56.95820 24.23120 37.01220 17.00336 10.56129 11.95435
374 73.39030 23.64090 52.07430 29.29357 15.80374 24.60488
375 81.76170 33.57470 68.16080 40.82210 23.36891 44.77432
376 85.55380 41.27480 82.56580 49.70311 29.79406 68.38554
377 15.06290 62.74620 21.43020 11.57912 25.73753 5.808921
378 15.47800 69.26340 52.38540 17.95454 33.35383 26.54760
379 15.30920 91.61810 82.28560 36.39829 62.54578 70.38067
380 49.87330 95.70680 84.17690 48.88004 73.52685 74.59478
381 63.13800 100.0000 100.0000 64.89303 85.78981 108.5681
382 11.17690 27.22350 22.88960 3.128517 4.742793 4.846746
383 19.81310 30.42000 31.37160 5.311593 6.630331 8.742172
384 23.51750 44.93310 37.61660 9.260895 13.89804 12.86469
385 51.72210 63.98430 40.02690 23.67585 31.90137 15.54396
386 20.92150 87.22550 18.61470 22.93406 52.94501 6.647894
387 19.30050 86.95180 35.88150 24.05315 53.37187 14.41601
388 2.336400 0.000000 0.000000 0.170171 0.138646 0.205311
389 10.71230 19.68690 28.19750 2.767981 3.076189 6.925586
390 10.36360 35.51060 44.25040 6.560358 8.498378 17.47904
391 0.000000 25.42600 35.25780 3.508455 4.445748 10.76369
392 15.83750 25.37290 67.70500 10.77140 7.096812 43.46264
393 17.14150 40.41900 75.82830 15.30437 13.59823 54.98496
394 27.29200 72.36420 100.0000 36.13251 42.35078 106.0437
395 0.000000 47.95810 64.79650 12.89437 16.27611 40.17120
396 44.44840 56.02040 71.54440 24.55762 26.21054 49.50656
397 46.28160 66.66230 77.84080 30.81884 36.49849 60.09776
398 39.74200 69.22580 88.89280 33.52365 39.41577 81.20787
399 49.67500 81.60940 90.95270 43.47838 54.80830 86.03129
400 0.000000 81.24030 46.60590 20.84750 45.13489 21.79153
401 12.86180 90.75110 67.91850 31.33978 59.70570 47.24875
402 37.30920 47.98140 44.38410 13.97501 17.37118 18.03775
403 43.29650 49.62700 58.62650 19.13698 20.53060 32.49284
404 64.14690 49.86930 83.73240 36.84847 27.92605 70.53686
405 82.83070 53.99570 88.25380 52.84796 37.62008 79.14430
406 21.77750 11.35120 25.39400 3.341262 2.195402 5.751477
407 32.03800 15.72030 28.22030 5.732147 3.834843 6.908658
408 67.83400 14.43720 39.26660 22.85646 11.49284 13.37283
409 74.83790 20.98900 72.36740 35.29541 17.52820 50.52476
410 81.51200 30.73380 88.36810 46.87401 24.47093 78.26993
411 25.12620 10.49480 18.51010 3.360622 2.179619 3.234062
412 31.33000 20.78520 21.23270 5.502573 4.594828 4.184384
413 35.15990 24.20580 30.98470 7.625685 6.248811 8.453166
414 45.02010 33.13830 36.47040 12.63941 10.79958 11.85487
415 47.98680 46.21330 37.21150 16.41955 17.84405 12.79941
416 61.01660 49.35620 42.05370 24.49102 23.19956 16.22461
417 12.56530 11.39800 4.467300 1.219763 1.321333 0.579341
418 18.66690 24.97720 8.906000 3.129315 4.399505 1.350769
419 37.55840 30.15280 23.32650 8.315540 7.994752 5.118078
420 46.53210 38.96740 47.73070 15.78591 13.97922 20.56630
421 50.31740 38.67970 70.32940 22.68408 16.61018 47.69240
422 59.31060 48.77640 69.91020 29.31495 24.30796 47.46423
423 86.85730 56.84840 79.16810 53.70288 40.19492 63.03732
424 100.0000 67.01150 85.31040 72.73284 56.37286 74.93480
425 21.05230 11.59800 12.01730 2.512730 1.945478 1.678103
426 25.93910 21.63430 13.97160 4.084277 4.158599 2.199299
427 77.13430 46.30770 17.86130 32.02008 25.37664 4.187485
428 76.74690 88.08880 15.32820 47.40345 65.37001 6.140878
429 79.01330 88.96670 39.81010 51.94388 68.28844 17.73153
430 82.01220 100.0000 58.84290 64.35102 87.29910 37.29650
431 24.31350 51.63360 15.36370 9.186564 17.60060 3.437356
432 41.72500 91.32150 13.87030 29.91105 61.06415 5.803799
433 64.11160 89.55350 20.28470 39.57922 63.02855 7.708727
434 35.99730 57.01550 49.26980 16.90659 23.72882 22.64555
435 44.93480 65.98620 62.80080 26.00856 34.02646 38.81679
436 65.86640 77.64870 75.31340 44.55368 52.02498 56.92115
437 79.11980 24.52000 0.000000 29.35475 16.57912 0.710093
438 80.14180 53.31680 0.000000 35.17724 30.47458 1.623597
439 86.44760 60.92600 26.66320 44.05947 39.42565 8.204938
440 56.29400 43.51910 14.17760 17.99792 17.45596 2.870947
441 59.87750 57.76610 15.95840 23.60333 27.87752 4.080033
442 62.07500 62.46210 40.09880 28.56420 33.26283 15.52276
443 61.28430 70.34360 55.68910 33.75939 41.08937 30.66878
444 50.24330 60.14500 62.00870 26.07758 29.71950 37.50789
445 52.96610 74.14090 61.49430 32.14508 43.22914 37.87021
446 64.46380 88.80190 65.35420 46.42104 64.47208 44.51740
447 80.95440 89.89190 72.95330 60.85347 72.52996 55.03030
448 59.99140 34.48240 13.21560 17.95027 13.75533 2.481880
449 89.25510 37.92080 13.77910 39.84041 25.34563 2.820395
450 59.67510 24.93220 15.71470 16.87767 10.80889 2.829004
451 60.07460 25.52020 48.01600 20.30611 12.11832 20.33909
452 59.73800 47.96910 50.24120 24.79152 22.34414 23.44070
453 61.54940 70.85850 87.70730 43.69878 45.47150 79.16789
454 71.01260 87.28260 89.64530 57.84757 67.74439 84.53930
455 14.36220 39.93140 14.14030 4.967817 9.788590 2.610337
456 37.29210 49.47840 14.25210 11.46370 17.34462 3.028177
457 71.67410 57.35540 14.18980 30.67092 30.92005 3.580614
458 84.53760 59.86990 61.26510 47.76758 39.88159 36.72197
459 15.89670 5.088800 13.06970 1.585939 0.979355 1.805703
460 30.83780 10.07630 14.06940 4.280574 2.596248 2.060031
461 40.00420 21.21410 17.65140 7.718792 5.741389 3.137202
462 29.77780 59.97860 0.000000 12.04298 23.75435 1.704852
463 29.18450 72.76330 18.36010 17.26590 36.11734 5.500114
464 55.33680 76.93410 49.45960 31.83078 45.84833 24.05926
465 100.0000 87.65580 62.44740 75.01878 77.14409 40.72823
466 39.91870 40.61410 0.000000 9.874298 12.40256 0.891343
467 81.44730 78.46270 20.04340 46.55836 54.91559 6.754203
468 89.28300 85.07150 38.62580 58.14819 67.12633 16.42103
469 63.98080 66.02860 0.000000 28.07988 35.69927 2.205474
470 86.72660 70.18640 22.57430 47.37663 48.06242 7.120894
471 100.0000 86.32780 24.84830 68.34270 73.39491 9.356146
472 44.07630 34.49880 13.07840 10.45080 10.24490 2.308449
473 55.84930 36.72030 27.44180 17.01251 14.06573 7.065808
474 67.89440 38.04230 33.46960 25.02407 18.21659 10.26216
475 71.28950 59.55820 67.96460 39.18606 35.35243 45.17482
476 77.68350 72.33030 87.24670 54.31362 51.16609 77.61165
477 13.24170 36.06350 25.85910 4.798016 8.053787 6.346249
478 14.46820 37.42780 37.68180 6.327002 9.079952 12.53763
479 21.35340 44.42840 56.90160 12.00802 14.39284 30.28030
480 42.75000 47.78110 77.20310 23.43846 20.88961 58.21051
481 54.00280 0.000000 51.35020 16.27739 7.113806 23.25122
482 64.12550 14.86390 53.04720 22.77954 11.23115 25.11115
483 25.99970 0.000000 23.42390 3.525498 1.595899 4.854501
484 33.67190 21.41200 41.27500 8.100546 5.746478 14.63031
485 44.40800 29.85350 44.07810 12.85530 9.729765 17.15554
486 55.98960 34.77970 44.86240 18.98115 14.03726 17.93118
487 58.16160 67.78170 61.12890 32.53412 38.51669 37.03146
488 59.44030 70.79670 76.98050 38.81601 43.62086 59.10207
489 7.616300 53.30220 53.85610 12.06163 19.04263 26.83053
490 13.58430 55.67120 66.27580 16.24606 22.15935 42.81337
491 20.30360 58.69140 78.04770 21.49783 26.38874 60.31870
492 23.96840 70.48630 79.99040 26.83381 37.36131 64.64196
493 24.48930 75.19400 93.27590 33.69611 43.94947 90.71545
494 41.32580 64.02880 24.56030 17.74291 29.20284 7.173387
495 58.52760 72.39470 31.54820 29.41219 41.30885 10.86655
496 86.98910 87.20680 65.53210 62.65658 70.77596 44.67156
497 87.09150 15.80210 12.48320 35.22614 17.72961 2.152567
498 87.89500 12.77940 28.57850 36.60242 17.84329 7.461468
499 88.57450 18.20590 43.11890 39.31552 19.61455 16.43607
500 88.90520 36.74370 43.40060 42.07188 25.62756 17.10160
501 84.69420 23.53780 23.21430 34.43234 18.65474 5.293512
502 100.0000 28.75960 40.29010 51.69746 27.72346 14.80071
503 87.16960 16.02800 66.00420 42.79313 20.33395 41.55245
504 100.0000 28.93880 69.71180 57.97132 29.89367 47.21981
505 49.88410 0.000000 14.22340 10.35466 4.848883 2.071344
506 61.26200 11.62360 15.67830 16.49958 8.459266 2.652803
507 73.74440 32.02420 14.18850 26.20036 16.95093 2.624955
508 76.86110 41.75670 28.62770 31.26934 22.70022 7.980790
509 84.62140 65.04010 41.12130 45.78138 43.22258 16.75233
510 60.77970 71.47060 16.26650 29.13293 40.57428 4.916982
511 72.12180 71.76420 31.44380 37.36950 44.31883 10.93193
512 81.97820 74.30400 46.24700 47.87570 50.96971 21.46520
513 27.50910 12.52550 6.598000 3.401465 2.433039 0.863254
514 45.79740 15.06830 9.386900 8.996875 5.350424 1.274094
515 56.33720 22.60020 24.48920 15.34729 9.536915 5.546135
516 89.11950 27.09410 57.06800 43.31900 22.96089 30.76736
517 91.10170 39.55070 56.40820 47.03727 28.74966 30.28972
518 44.61020 13.47320 51.19480 12.71054 6.372156 23.40196
519 45.04280 18.25940 84.19370 22.08699 10.37309 69.97115
520 44.88250 31.81700 86.46670 24.10018 14.16024 73.97623
521 49.36150 45.63560 89.81860 29.95580 22.21383 81.46992
522 8.682500 9.034700 17.67000 1.248772 1.078229 2.927659
523 8.839400 10.26250 25.44850 1.836148 1.367082 5.688455
524 21.25810 14.57070 59.80430 8.626317 4.358589 33.10203
525 61.03070 33.88880 75.89290 28.84049 17.46688 55.83600
526 66.08010 42.65580 90.89820 38.90212 25.01721 83.86285
527 16.15210 12.18330 35.89420 3.590194 2.228284 11.04802
528 16.81840 33.00890 89.62090 18.85669 11.92047 80.72192
529 19.48710 46.21740 90.81250 22.33249 18.92891 83.51743
530 13.16120 40.50400 64.49980 11.85793 12.30225 39.27802
531 14.03000 68.48610 65.09770 20.47855 33.34464 41.90551
532 18.31920 71.07100 37.48260 16.56249 34.05833 14.25867
533 40.99620 76.68170 38.02510 24.03622 42.33030 15.01078
534 46.05380 85.41520 53.60590 32.87061 55.29582 29.21789
535 48.35070 86.11900 65.04170 36.91890 57.73772 43.63745
536 65.96680 90.37150 100.0000 60.57779 71.59044 107.6507
537 0.000000 62.21930 66.45810 17.54027 27.22923 43.00220
538 0.000000 68.13030 82.24440 24.41320 34.20290 68.34987
539 16.53690 82.94800 88.44480 34.49944 52.56629 81.41392
540 45.95250 87.48500 88.82770 43.97369 61.15013 82.65457
541 0.000000 19.55860 100.0000 20.58713 9.082696 103.4881
542 0.000000 19.70880 79.02030 12.50201 6.325362 60.86395
543 25.52170 24.10860 86.02270 17.69600 9.332824 73.00000
544 80.86150 0.000000 36.91420 31.31535 14.40141 11.81460
545 88.32940 7.875800 53.08710 40.06687 18.57215 25.29833
546 87.01540 12.93560 81.94200 47.26610 21.43282 66.29620
547 26.38800 82.03280 59.85030 26.69072 48.49042 36.38077
548 37.37730 82.77500 70.37790 32.47718 51.88460 50.15209
549 56.48850 83.57890 77.14120 43.02540 57.54326 61.00948
550 61.78880 100.0000 76.43990 55.07109 82.26829 61.24071
551 18.33260 27.22940 0.000000 3.077915 4.795109 0.485567
552 32.08260 36.21190 10.95700 6.953594 9.173965 1.868591
553 47.86430 46.78940 18.57040 14.85620 17.46262 4.128785
554 64.59800 54.72790 37.32850 27.36218 27.55686 13.30478
555 74.08640 55.14930 50.56170 35.77273 31.57627 24.28579
556 30.83860 16.77830 50.67450 8.616300 4.956800 22.70459
557 30.23130 39.67380 61.27900 13.60421 12.93066 35.34431
558 32.90300 56.57700 65.77120 19.60623 24.28342 42.39537
559 18.53360 53.75720 87.70880 22.97760 23.27977 77.87059
560 47.28910 59.05090 88.80710 32.51154 31.17618 79.84358
561 17.02510 31.89970 61.12150 9.995891 8.474737 35.03880
562 57.49840 50.92190 61.41750 26.88242 24.68563 36.48969
563 51.06370 56.72410 47.24010 21.96775 26.19556 20.75434
564 63.26450 59.11580 48.37530 29.36760 31.04342 21.95622
565 72.31340 63.05260 60.11990 39.02292 37.98202 35.34714
566 72.52170 71.66030 60.79110 42.56622 46.10416 36.84895
567 21.24440 11.55340 72.17610 11.54903 4.995493 49.26180
568 22.08060 11.07110 87.94590 16.81953 6.744240 76.69387
569 57.48470 9.080000 88.22820 28.80121 12.17522 77.34667
570 70.82040 62.89820 89.73900 47.09247 40.68756 82.51131
571 89.89020 70.92340 89.85600 64.77044 55.14315 82.98037
572 39.03700 6.251000 13.59080 6.343464 3.283254 1.957852
573 47.22960 74.12090 15.93970 23.26567 39.65832 4.990876
574 47.43550 89.29100 36.84130 32.79940 59.64632 15.42475
575 74.33400 92.29400 85.80100 61.27851 74.42714 77.15119
576 8.284400 21.08140 13.00630 1.794091 2.985913 1.957735
577 10.97000 20.78600 22.42750 2.434256 3.136554 4.570506
578 20.49730 29.14550 37.21840 5.793505 6.281157 12.09391
579 33.74020 31.00720 60.70880 12.85237 9.560218 34.52844
580 13.02130 0.000000 15.37270 1.212630 0.576914 2.291405
581 13.87150 4.238400 24.56360 1.973318 1.054734 5.326098
582 37.15400 8.269000 25.95760 6.577910 3.429941 5.924716
583 53.75050 13.67240 27.00500 13.37953 7.142835 6.591254
584 73.30210 16.31200 32.21050 25.54845 13.11442 9.162075
585 90.02330 53.66320 35.67230 46.02586 35.67132 12.50224
586 89.76540 58.72400 69.76560 54.17457 42.11398 48.29616
587 25.98110 87.36410 52.89270 27.83401 54.67476 28.44594
588 69.58950 87.09210 74.58120 51.49455 65.18200 56.53955
END_DATA
CAL    

DESCRIPTOR "Argyll Device Calibration State"
ORIGINATOR "Argyll dispread"
CREATED "Sat Aug 20 17:54:06 2022"
DEVICE_CLASS "DISPLAY"
COLOR_REP "RGB"

BEGIN_ARGYLL_DISPCAL_ARGS
-v2 -ql -m -w0.3127,0.329 -gs -f1.0 -k0 -A4.0 -d1 -c1 -yn -P0.467312348668,0.404761904762,2.11819595645
END_ARGYLL_DISPCAL_ARGS


NUMBER_OF_FIELDS 4
BEGIN_DATA_FORMAT
RGB_I RGB_R RGB_G RGB_B
END_DATA_FORMAT

NUMBER_OF_SETS 256
BEGIN_DATA
0.00000000 0.00000000 0.00000000 0.00000000
0.00392157 0.00859096 0.00864796 0.00909088
0.00784314 0.01637360 0.01643710 0.01736460
0.01176470 0.02345690 0.02348940 0.02492670
0.01568630 0.02993100 0.02990460 0.03186510
0.01960780 0.03587030 0.03576470 0.03825640
0.02352940 0.04132890 0.04112760 0.04416100
0.02745100 0.04636650 0.04606110 0.04962500
0.03137250 0.05104160 0.05062280 0.05470220
0.03529410 0.05542010 0.05487880 0.05945540
0.03921570 0.05957600 0.05889870 0.06395550
0.04313730 0.06356380 0.06273620 0.06825970
0.04705880 0.06742110 0.06642440 0.07241140
0.05098040 0.07117270 0.06998730 0.07643280
0.05490200 0.07484260 0.07345520 0.08034610
0.05882350 0.07844650 0.07684390 0.08417150
0.06274510 0.08200060 0.08016990 0.08793370
0.06666670 0.08551420 0.08344060 0.09164140
0.07058820 0.08900300 0.08667550 0.09530760
0.07450980 0.09247170 0.08987950 0.09893770
0.07843140 0.09594440 0.09308020 0.10256100
0.08235290 0.09942030 0.09628230 0.10618300
0.08627450 0.10289800 0.09948500 0.10980300
0.09019610 0.10638300 0.10270200 0.11343400
0.09411760 0.10986200 0.10592300 0.11706400
0.09803920 0.11332200 0.10914100 0.12068800
0.10196100 0.11676300 0.11235000 0.12429500
0.10588200 0.12018800 0.11556400 0.12789600
0.10980400 0.12358700 0.11877000 0.13147600
0.11372500 0.12695900 0.12196600 0.13503700
0.11764700 0.13029300 0.12514800 0.13856300
0.12156900 0.13360300 0.12831500 0.14206400
0.12549000 0.13689100 0.13147900 0.14555700
0.12941200 0.14015200 0.13463700 0.14903300
0.13333300 0.14338900 0.13778700 0.15249400
0.13725500 0.14660300 0.14093500 0.15594100
0.14117600 0.14978800 0.14407400 0.15936900
0.14509800 0.15295100 0.14719600 0.16278400
0.14902000 0.15610900 0.15031500 0.16620200
0.15294100 0.15926700 0.15343800 0.16962800
0.15686300 0.16241500 0.15656700 0.17305200
0.16078400 0.16555600 0.15969700 0.17647500
0.16470600 0.16870400 0.16282600 0.17990800
0.16862700 0.17186100 0.16596500 0.18335900
0.17254900 0.17501000 0.16911200 0.18681400
0.17647100 0.17815600 0.17224700 0.19027300
0.18039200 0.18130500 0.17538300 0.19374500
0.18431400 0.18446900 0.17852600 0.19724600
0.18823500 0.18766000 0.18169200 0.20078500
0.19215700 0.19087400 0.18488800 0.20436000
0.19607800 0.19409800 0.18809600 0.20795200
0.20000000 0.19733500 0.19130700 0.21156000
0.20392200 0.20058000 0.19452200 0.21517700
0.20784300 0.20384100 0.19774200 0.21881000
0.21176500 0.20712100 0.20097500 0.22246400
0.21568600 0.21041400 0.20422400 0.22612800
0.21960800 0.21369800 0.20747400 0.22978200
0.22352900 0.21697800 0.21070900 0.23343200
0.22745100 0.22026300 0.21394000 0.23708500
0.23137300 0.22354000 0.21717100 0.24072400
0.23529400 0.22680100 0.22038900 0.24434900
0.23921600 0.23006100 0.22359200 0.24798500
0.24313700 0.23333700 0.22680100 0.25164600
0.24705900 0.23663200 0.23002700 0.25533100
0.25098000 0.23992900 0.23326400 0.25902100
0.25490200 0.24322200 0.23649300 0.26271200
0.25882400 0.24650800 0.23971000 0.26640600
0.26274500 0.24979300 0.24291100 0.27010200
0.26666700 0.25306900 0.24609500 0.27378100
0.27058800 0.25633400 0.24925200 0.27745600
0.27451000 0.25960100 0.25239800 0.28113200
0.27843100 0.26288200 0.25554500 0.28481300
0.28235300 0.26618200 0.25870300 0.28849500
0.28627500 0.26949700 0.26187400 0.29215300
0.29019600 0.27280300 0.26505100 0.29577200
0.29411800 0.27610100 0.26821500 0.29936900
0.29803900 0.27941200 0.27137200 0.30297000
0.30196100 0.28275900 0.27454300 0.30659000
0.30588200 0.28614900 0.27775400 0.31022700
0.30980400 0.28958000 0.28101000 0.31387800
0.31372500 0.29304600 0.28430400 0.31755500
0.31764700 0.29656100 0.28763200 0.32125700
0.32156900 0.30012000 0.29100700 0.32498900
0.32549000 0.30373100 0.29442500 0.32875800
0.32941200 0.30739400 0.29789100 0.33256900
0.33333300 0.31111600 0.30140500 0.33643800
0.33725500 0.31489800 0.30498000 0.34034300
0.34117600 0.31870700 0.30860900 0.34427800
0.34509800 0.32254400 0.31226400 0.34824100
0.34902000 0.32640800 0.31594600 0.35222900
0.35294100 0.33030000 0.31965300 0.35623600
0.35686300 0.33420100 0.32338500 0.36024900
0.36078400 0.33811700 0.32712700 0.36427400
0.36470600 0.34204400 0.33088400 0.36829300
0.36862700 0.34596100 0.33465500 0.37230100
0.37254900 0.34987900 0.33842000 0.37631200
0.37647100 0.35381100 0.34218500 0.38033300
0.38039200 0.35775000 0.34596800 0.38436300
0.38431400 0.36170100 0.34975700 0.38841100
0.38823500 0.36568800 0.35355800 0.39249500
0.39215700 0.36972800 0.35739500 0.39662500
0.39607800 0.37382200 0.36129000 0.40080200
0.40000000 0.37792600 0.36524800 0.40498200
0.40392200 0.38197600 0.36924000 0.40910700
0.40784300 0.38597200 0.37318700 0.41317400
0.41176500 0.38994100 0.37707700 0.41720700
0.41568600 0.39390400 0.38093000 0.42122400
0.41960800 0.39785400 0.38476800 0.42522900
0.42352900 0.40179300 0.38859500 0.42922100
0.42745100 0.40572800 0.39241100 0.43322300
0.43137300 0.40966200 0.39623100 0.43723900
0.43529400 0.41361100 0.40005500 0.44127800
0.43921600 0.41757000 0.40389700 0.44534700
0.44313700 0.42150900 0.40776500 0.44942500
0.44705900 0.42543000 0.41162700 0.45349500
0.45098000 0.42935900 0.41547100 0.45756900
0.45490200 0.43329500 0.41932700 0.46166000
0.45882400 0.43722900 0.42320400 0.46576100
0.46274500 0.44117400 0.42707900 0.46987200
0.46666700 0.44511200 0.43096000 0.47400600
0.47058800 0.44904900 0.43483300 0.47814900
0.47451000 0.45298200 0.43870000 0.48231100
0.47843100 0.45691100 0.44256300 0.48649300
0.48235300 0.46083400 0.44642000 0.49069400
0.48627500 0.46475100 0.45027100 0.49491200
0.49019600 0.46868800 0.45411500 0.49915100
0.49411800 0.47264000 0.45796800 0.50343800
0.49803900 0.47657600 0.46184700 0.50773100
0.50196100 0.48049400 0.46571200 0.51202100
0.50588200 0.48439400 0.46955600 0.51630900
0.50980400 0.48828000 0.47338100 0.52059600
0.51372500 0.49215100 0.47718900 0.52488300
0.51764700 0.49600500 0.48097900 0.52916200
0.52156900 0.49985800 0.48474600 0.53343800
0.52549000 0.50369600 0.48850500 0.53770900
0.52941200 0.50753400 0.49224300 0.54196200
0.53333300 0.51137100 0.49597100 0.54621000
0.53725500 0.51518600 0.49969800 0.55043800
0.54117600 0.51898200 0.50340300 0.55463300
0.54509800 0.52276200 0.50708300 0.55880000
0.54902000 0.52652700 0.51074900 0.56294500
0.55294100 0.53029300 0.51439800 0.56708700
0.55686300 0.53406400 0.51804800 0.57123700
0.56078400 0.53781200 0.52171300 0.57537900
0.56470600 0.54152400 0.52537700 0.57947300
0.56862700 0.54521200 0.52902000 0.58352800
0.57254900 0.54889000 0.53264800 0.58756500
0.57647100 0.55254900 0.53627600 0.59159000
0.58039200 0.55617800 0.53990600 0.59559000
0.58431400 0.55978300 0.54352200 0.59956900
0.58823500 0.56338100 0.54712600 0.60352900
0.59215700 0.56696400 0.55073300 0.60747000
0.59607800 0.57053000 0.55433000 0.61139100
0.60000000 0.57409000 0.55791300 0.61530000
0.60392200 0.57764300 0.56148400 0.61919500
0.60784300 0.58118100 0.56504300 0.62306800
0.61176500 0.58470500 0.56857600 0.62691600
0.61568600 0.58822000 0.57208200 0.63074600
0.61960800 0.59171900 0.57556700 0.63455000
0.62352900 0.59519800 0.57902400 0.63832700
0.62745100 0.59867400 0.58245100 0.64209000
0.63137300 0.60215300 0.58587100 0.64584900
0.63529400 0.60565200 0.58929200 0.64962000
0.63921600 0.60919200 0.59272700 0.65342100
0.64313700 0.61277900 0.59619500 0.65725800
0.64705900 0.61641400 0.59970600 0.66113600
0.65098000 0.62009900 0.60326100 0.66505400
0.65490200 0.62382100 0.60686200 0.66900200
0.65882400 0.62749800 0.61050400 0.67290200
0.66274500 0.63110700 0.61410800 0.67672800
0.66666700 0.63464800 0.61764400 0.68048000
0.67058800 0.63812200 0.62110900 0.68415300
0.67451000 0.64153800 0.62450500 0.68775600
0.67843100 0.64491400 0.62783400 0.69130500
0.68235300 0.64826300 0.63111300 0.69481000
0.68627500 0.65159600 0.63435900 0.69827800
0.69019600 0.65491900 0.63758500 0.70171400
0.69411800 0.65824900 0.64079700 0.70514100
0.69803900 0.66157500 0.64401700 0.70855600
0.70196100 0.66488500 0.64724000 0.71194600
0.70588200 0.66818700 0.65045200 0.71531300
0.70980400 0.67148400 0.65366000 0.71867700
0.71372500 0.67477700 0.65687200 0.72203900
0.71764700 0.67807800 0.66008800 0.72540700
0.72156900 0.68138100 0.66331600 0.72879000
0.72549000 0.68467300 0.66655500 0.73217500
0.72941200 0.68796400 0.66978900 0.73556200
0.73333300 0.69125400 0.67302300 0.73896400
0.73725500 0.69454300 0.67626300 0.74237800
0.74117600 0.69783400 0.67951000 0.74580600
0.74509800 0.70114500 0.68276900 0.74926200
0.74902000 0.70447000 0.68605900 0.75275600
0.75294100 0.70780600 0.68937100 0.75627700
0.75686300 0.71115200 0.69269900 0.75982500
0.76078400 0.71451000 0.69604500 0.76339500
0.76470600 0.71789700 0.69941000 0.76698900
0.76862700 0.72130700 0.70280900 0.77062200
0.77254900 0.72473700 0.70623500 0.77428800
0.77647100 0.72819100 0.70967800 0.77798800
0.78039200 0.73166400 0.71314200 0.78173200
0.78431400 0.73516000 0.71662600 0.78551600
0.78823500 0.73869200 0.72013000 0.78934800
0.79215700 0.74227100 0.72366600 0.79324000
0.79607800 0.74589900 0.72723900 0.79720200
0.80000000 0.74954600 0.73085100 0.80123100
0.80392200 0.75315500 0.73446400 0.80525700
0.80784300 0.75672600 0.73802200 0.80926100
0.81176500 0.76026500 0.74152500 0.81324300
0.81568600 0.76379000 0.74498400 0.81721700
0.81960800 0.76732000 0.74841900 0.82120000
0.82352900 0.77085200 0.75185400 0.82520200
0.82745100 0.77436900 0.75528600 0.82920300
0.83137300 0.77787200 0.75870700 0.83319700
0.83529400 0.78137300 0.76212000 0.83718900
0.83921600 0.78487800 0.76553800 0.84118000
0.84313700 0.78838100 0.76896600 0.84516200
0.84705900 0.79188300 0.77240100 0.84912900
0.85098000 0.79539500 0.77584900 0.85309300
0.85490200 0.79892000 0.77932600 0.85705600
0.85882400 0.80244800 0.78282900 0.86100500
0.86274500 0.80595200 0.78634400 0.86490400
0.86666700 0.80943400 0.78985100 0.86876000
0.87058800 0.81290900 0.79335000 0.87259400
0.87451000 0.81638100 0.79685200 0.87640900
0.87843100 0.81985200 0.80035600 0.88020800
0.88235300 0.82332400 0.80386500 0.88400100
0.88627500 0.82681500 0.80738000 0.88780800
0.89019600 0.83033000 0.81091900 0.89162700
0.89411800 0.83384300 0.81447300 0.89542900
0.89803900 0.83735000 0.81801400 0.89921800
0.90196100 0.84086000 0.82154200 0.90300600
0.90588200 0.84439600 0.82508100 0.90681900
0.90980400 0.84796100 0.82864900 0.91065200
0.91372500 0.85154300 0.83224300 0.91448900
0.91764700 0.85512800 0.83584100 0.91832800
0.92156900 0.85872900 0.83945000 0.92218800
0.92549000 0.86235100 0.84308600 0.92606400
0.92941200 0.86598200 0.84673700 0.92994400
0.93333300 0.86962300 0.85038800 0.93383700
0.93725500 0.87327700 0.85404700 0.93773300
0.94117600 0.87693400 0.85770100 0.94163100
0.94509800 0.88060300 0.86136400 0.94552800
0.94902000 0.88427300 0.86502600 0.94942200
0.95294100 0.88794700 0.86869600 0.95331000
0.95686300 0.89162600 0.87237200 0.95719400
0.96078400 0.89531100 0.87605500 0.96107700
0.96470600 0.89900200 0.87974000 0.96496400
0.96862700 0.90270300 0.88343100 0.96885600
0.97254900 0.90641300 0.88712800 0.97275100
0.97647100 0.91013200 0.89083400 0.97664900
0.98039200 0.91386000 0.89454800 0.98055000
0.98431400 0.91759600 0.89827100 0.98445500
0.98823500 0.92134200 0.90200100 0.98836200
0.99215700 0.92509700 0.90574000 0.99227200
0.99607800 0.92886000 0.90948800 0.99618600
1.00000000 0.93263300 0.91324300 1.00000000
END_DATA
