CTI3   

DESCRIPTOR "Argyll Calibration Target chart information 3"
ORIGINATOR "Argyll dispread"
CREATED "Sat Aug 20 17:25:47 2022"
DEVICE_CLASS "DISPLAY"
SINGLE_DIM_STEPS "21"
COMP_GREY_STEPS "61"
DARK_REGION_EMPHASIS "1.6"
COLOR_REP "RGB_XYZ"
TARGET_INSTRUMENT "X-Rite i1 DisplayPro, ColorMunki Display"
DISPLAY_TYPE_REFRESH "NO"
DISPLAY_TYPE_BASE_ID "1"
INSTRUMENT_TYPE_SPECTRAL "NO"
LUMINANCE_XYZ_CDM2 "51.788077 54.610033 59.134826"
NORMALIZED_TO_Y_100 "YES"
VIDEO_LUT_CALIBRATION_POSSIBLE "YES"

BEGIN_ARGYLL_COLPROF_ARGS
-v -qh -aX -bn -C "No copyright. Created with DisplayCAL 3.8.9.3 and ArgyllCMS 2.1.2" -M "DELL U2718Q" -A "Dell, Inc."
END_ARGYLL_COLPROF_ARGS

OBSERVER "1931_2"
USE_BLACK_POINT_COMPENSATION "NO"
BLACK_POINT_CORRECTION "0.0"
HIRES_B2A "YES"
HIRES_B2A_SIZE "-1"
SMOOTH_B2A "YES"
PATCH_SEQUENCE "OPTIMIZE_DISPLAY_RESPONSE_DELAY"

NUMBER_OF_FIELDS 7
BEGIN_DATA_FORMAT
SAMPLE_ID RGB_R RGB_G RGB_B XYZ_X XYZ_Y XYZ_Z
END_DATA_FORMAT

NUMBER_OF_SETS 588
BEGIN_DATA
1 100.0000 100.0000 100.0000 94.83253 100.00000 108.2856
2 1.960800 1.960800 1.960800 0.221788 0.235902 0.268116
3 3.921600 3.921600 3.921600 0.354529 0.376096 0.439165
4 5.882400 5.882400 5.882400 0.524045 0.549217 0.634456
5 9.803900 9.803900 9.803900 0.978257 1.024940 1.150608
6 13.72600 13.72600 13.72600 1.675605 1.759077 1.975699
7 17.64700 17.64700 17.64700 2.468286 2.600599 2.907448
8 21.56900 21.56900 21.56900 3.621999 3.835503 4.323240
9 25.49000 25.49000 25.49000 5.185618 5.426686 5.906510
10 29.41200 29.41200 29.41200 6.674342 7.024020 7.730868
11 33.33300 33.33300 33.33300 8.671698 9.096446 10.13035
12 37.25500 37.25500 37.25500 10.97683 11.50252 12.53410
13 41.17600 41.17600 41.17600 13.50853 14.18730 15.55637
14 45.09800 45.09800 45.09800 16.18511 17.08335 18.69125
15 49.02000 49.02000 49.02000 19.66471 20.73735 22.46593
16 52.94100 52.94100 52.94100 23.07132 24.34892 26.42931
17 56.86300 56.86300 56.86300 26.91632 28.35498 30.78374
18 60.78400 60.78400 60.78400 31.18648 32.69603 35.79131
19 64.70600 64.70600 64.70600 35.83214 37.73286 41.26467
20 68.62700 68.62700 68.62700 40.70584 42.89055 46.26938
21 72.54900 72.54900 72.54900 46.17087 48.60725 52.97277
22 76.47100 76.47100 76.47100 52.09343 54.85716 59.47318
23 80.39200 80.39200 80.39200 58.19438 61.24781 66.54223
24 84.31400 84.31400 84.31400 64.16221 67.57741 73.75557
25 88.23500 88.23500 88.23500 71.37088 75.46711 81.78184
26 92.15700 92.15700 92.15700 78.63141 82.47041 91.18441
27 96.07800 96.07800 96.07800 86.55680 91.38485 99.91294
28 0.000000 0.000000 16.30430 0.489293 0.264622 2.119800
29 0.000000 0.000000 19.66290 0.664069 0.336593 3.021159
30 18.89600 0.000000 34.35100 3.114283 1.465543 9.821151
31 27.05250 0.000000 59.19420 8.228697 3.705989 29.95889
32 39.22210 0.000000 78.96060 16.07023 7.220950 57.37448
33 0.000000 43.57140 75.87360 15.75319 15.63120 54.21199
34 0.000000 58.07990 84.27350 22.82603 25.94750 68.87069
35 0.000000 61.40900 100.0000 30.63094 31.53684 101.8531
36 100.0000 28.88820 0.000000 44.60034 27.43793 2.538400
37 100.0000 70.51690 23.89170 58.89477 54.84734 11.79772
38 100.0000 74.40020 52.21840 64.20781 60.34772 30.04105
39 13.15790 0.000000 0.000000 0.771823 0.469721 0.234414
40 16.30430 0.000000 0.000000 1.057774 0.615691 0.247477
41 19.66290 0.000000 0.000000 1.415167 0.801656 0.261501
42 23.25580 0.000000 0.000000 1.954048 1.082662 0.281269
43 27.10840 0.000000 0.000000 2.631412 1.436825 0.299861
44 31.25000 0.000000 0.000000 3.422348 1.849614 0.325959
45 35.71430 0.000000 0.000000 4.363710 2.344958 0.354242
46 37.87990 0.000000 0.000000 5.027704 2.692094 0.385128
47 40.54050 0.000000 0.000000 5.732585 3.057949 0.399802
48 45.77470 0.000000 0.000000 7.485446 3.970963 0.443184
49 51.47060 0.000000 0.000000 9.625001 5.090158 0.513417
50 57.69230 0.000000 0.000000 12.11579 6.397658 0.602185
51 64.51610 0.000000 0.000000 15.84450 8.344981 0.719759
52 72.03390 0.000000 0.000000 20.04481 10.54947 0.864979
53 80.35710 0.000000 0.000000 25.43379 13.38486 1.069615
54 81.45190 100.0000 0.000000 61.13769 84.67851 11.70932
55 80.39330 100.0000 32.41380 62.28074 84.99314 21.13655
56 61.06840 100.0000 0.000000 49.21054 78.46633 11.28284
57 100.0000 100.0000 30.33970 77.99905 93.17293 20.59312
58 100.0000 100.0000 86.40530 89.82715 97.97603 81.87973
59 0.000000 13.15790 0.000000 0.666057 1.215667 0.374069
60 0.000000 16.30430 0.000000 0.909666 1.721972 0.428199
61 0.000000 19.66290 0.000000 1.208389 2.339211 0.491654
62 0.000000 23.25580 0.000000 1.607056 3.159150 0.581759
63 0.000000 27.10840 0.000000 2.157261 4.297133 0.701138
64 0.000000 31.25000 0.000000 2.871994 5.773399 0.888675
65 0.000000 35.71430 0.000000 3.644324 7.353171 1.085156
66 0.000000 40.54050 0.000000 4.737319 9.596988 1.367281
67 0.000000 45.77470 0.000000 6.228573 12.65832 1.750157
68 0.000000 51.47060 0.000000 7.803514 15.89290 2.161621
69 0.000000 57.69230 0.000000 10.07150 20.51824 2.768011
70 0.000000 64.51610 0.000000 13.11794 26.74863 3.594076
71 0.000000 72.03390 0.000000 16.61695 33.83675 4.642000
72 0.000000 80.35710 0.000000 21.19921 43.06370 5.971883
73 0.000000 89.62260 0.000000 27.23446 55.44211 7.893890
74 0.000000 100.0000 0.000000 35.11717 71.23323 10.45186
75 34.28220 100.0000 0.000000 39.19516 73.34509 10.56151
76 64.81260 100.0000 89.16240 64.85649 85.10459 84.48139
77 0.000000 0.000000 7.425700 0.202726 0.146608 0.666668
78 0.000000 0.000000 10.20410 0.259553 0.170051 0.963117
79 0.000000 0.000000 13.15790 0.367188 0.214722 1.499091
80 23.78610 0.000000 12.34190 2.168642 1.157675 1.425675
81 0.000000 0.000000 0.000000 0.098049 0.103246 0.111467
82 0.000000 0.000000 4.807700 0.153168 0.126136 0.408685
83 0.000000 0.000000 27.10840 1.194667 0.556281 5.806854
84 0.000000 0.000000 31.25000 1.591086 0.718922 7.858327
85 0.000000 0.000000 35.71430 2.058775 0.911610 10.31345
86 0.000000 0.000000 40.54050 2.666149 1.162556 13.47611
87 0.000000 0.000000 45.77470 3.429227 1.477097 17.43856
88 0.000000 0.000000 51.47060 4.385632 1.870304 22.36934
89 0.000000 0.000000 57.69230 5.516868 2.337190 28.23840
90 0.000000 0.000000 64.51610 7.178096 3.022235 36.85331
91 0.000000 0.000000 72.03390 9.079194 3.802174 46.70394
92 0.000000 0.000000 80.35710 11.57023 4.821273 59.61152
93 0.000000 0.000000 89.62260 14.70377 6.108545 75.91692
94 0.000000 0.000000 100.0000 19.00512 7.811953 98.15213
95 0.000000 34.75980 100.0000 22.51669 14.88798 99.60936
96 55.83250 57.95840 100.0000 40.29996 34.28779 101.7514
97 0.000000 2.336400 0.000000 0.156070 0.214541 0.169306
98 3.144700 3.144700 3.144700 0.295271 0.304208 0.368554
99 3.968300 3.968300 3.968300 0.354882 0.376324 0.440270
100 4.807700 4.807700 4.807700 0.411221 0.438231 0.508526
101 5.663400 5.663400 5.663400 0.487696 0.507673 0.596149
102 6.535900 6.535900 6.535900 0.595495 0.623423 0.739582
103 7.425700 7.425700 7.425700 0.678424 0.714360 0.836810
104 8.333300 8.333300 8.333300 0.784930 0.813945 0.954102
105 9.259300 9.259300 9.259300 0.926128 0.971790 1.082028
106 10.20410 10.20410 10.20410 1.042012 1.095430 1.230052
107 11.16840 11.16840 11.16840 1.174541 1.231451 1.417626
108 12.15280 12.15280 12.15280 1.415029 1.490208 1.677757
109 13.15790 13.15790 13.15790 1.580126 1.657953 1.876931
110 14.18440 14.18440 14.18440 1.767885 1.851124 2.059091
111 15.23300 15.23300 15.23300 1.959979 2.109937 2.299942
112 16.30430 16.30430 16.30430 2.231206 2.363751 2.543968
113 17.39930 17.39930 17.39930 2.451609 2.596510 2.813521
114 18.51850 18.51850 18.51850 2.689003 2.847217 3.208739
115 19.66290 19.66290 19.66290 3.058725 3.238354 3.495994
116 20.83330 20.83330 20.83330 3.419305 3.576951 3.969271
117 22.03070 22.03070 22.03070 3.709361 3.883489 4.472208
118 23.25580 23.25580 23.25580 4.233956 4.436128 4.856535
119 24.50980 24.50980 24.50980 4.524080 4.769133 5.281680
120 25.79360 25.79360 25.79360 5.317543 5.593297 6.131177
121 27.10840 27.10840 27.10840 5.746551 6.044180 6.519052
122 28.45530 28.45530 28.45530 6.483449 6.846890 7.519038
123 29.83540 29.83540 29.83540 6.916044 7.286731 8.014287
124 58.62820 41.67410 57.64400 23.22157 19.20490 30.48267
125 100.0000 100.0000 100.0000 94.90616 100.0024 108.6326
126 31.25000 31.25000 31.25000 7.668230 8.107227 8.831306
127 35.71430 35.71430 35.71430 9.805521 10.35067 11.48590
128 37.28070 37.28070 37.28070 10.99718 11.53741 12.57187
129 38.88890 38.88890 38.88890 11.90729 12.56402 13.70226
130 40.54050 40.54050 40.54050 12.96254 13.58219 15.22040
131 42.23740 42.23740 42.23740 14.14439 15.00683 16.38644
132 43.98150 43.98150 43.98150 15.52351 16.40796 17.95504
133 45.77470 45.77470 45.77470 16.97878 17.92846 19.57334
134 47.61910 47.61910 47.61910 18.38436 19.27466 21.22484
135 49.51690 49.51690 49.51690 19.91652 21.06410 22.97151
136 51.47060 51.47060 51.47060 21.71995 22.81798 25.03669
137 53.48260 53.48260 53.48260 23.55615 24.79684 26.93293
138 55.55560 55.55560 55.55560 25.73819 27.17329 29.26199
139 57.69230 57.69230 57.69230 27.58924 29.12331 31.91224
140 59.89580 59.89580 59.89580 30.22124 31.80360 34.80713
141 62.16930 62.16930 62.16930 33.04064 34.73842 37.90412
142 64.51610 64.51610 64.51610 35.85148 37.73435 41.35276
143 66.93990 66.93990 66.93990 38.68182 40.78765 44.12166
144 69.44440 69.44440 69.44440 41.77992 43.98460 47.88033
145 86.48170 100.0000 87.96510 78.71234 92.25179 83.69356
146 85.75850 100.0000 100.0000 82.86487 93.78651 107.6683
147 100.0000 100.0000 100.0000 94.90616 100.0024 108.6326
148 72.03390 72.03390 72.03390 45.64629 47.99475 52.35629
149 74.71260 74.71260 74.71260 49.85603 52.34271 57.13482
150 86.41970 86.41970 86.41970 67.85239 71.31348 77.93973
151 89.62260 89.62260 89.62260 74.32885 78.31308 84.91842
152 92.94870 92.94870 92.94870 80.52529 84.78520 92.93654
153 96.40520 96.40520 96.40520 87.39666 92.20249 100.9602
154 100.0000 25.52770 23.36250 45.06731 26.81848 7.489928
155 89.62260 0.000000 0.000000 32.96051 17.35318 1.353347
156 100.0000 0.000000 0.000000 41.92730 22.09154 1.708710
157 100.0000 81.57640 0.000000 63.81098 66.62818 8.263491
158 100.0000 100.0000 0.000000 76.42904 92.48254 12.51227
159 24.74910 42.21040 0.000000 7.356398 11.79912 1.577468
160 44.85520 56.33290 0.000000 16.43727 23.15251 2.917163
161 57.50660 100.0000 27.26910 48.68318 78.03830 17.51284
162 100.0000 100.0000 52.42430 80.87198 94.27512 36.04028
163 100.0000 100.0000 72.52190 85.38618 96.20499 59.63214
164 0.000000 100.0000 49.67570 38.94458 72.87093 31.35144
165 0.000000 100.0000 68.22290 42.79767 74.35300 51.37287
166 33.64420 100.0000 73.24510 48.24657 77.01384 58.89720
167 80.74850 100.0000 74.22790 70.15642 88.36769 61.16221
168 57.76380 49.39750 0.000000 19.33492 21.23740 2.493650
169 72.80250 50.26540 59.56320 33.96634 28.40385 33.36990
170 100.0000 28.30330 54.18980 49.26673 29.14055 27.63255
171 100.0000 49.89810 55.93250 54.67525 39.64228 30.62086
172 100.0000 65.66970 56.22180 60.52584 51.76804 32.36525
173 100.0000 47.78940 0.000000 48.79585 36.21977 3.818888
174 100.0000 65.11820 0.000000 55.20212 49.19386 5.547037
175 0.000000 75.23260 100.0000 36.98459 44.87040 103.3719
176 0.000000 86.97000 100.0000 43.97078 58.87781 105.2405
177 36.66060 86.98880 100.0000 48.31494 61.19000 105.5609
178 100.0000 87.44610 100.0000 86.07988 81.67292 106.0235
179 0.000000 0.000000 0.000000 0.098156 0.103506 0.111795
180 54.07270 0.000000 35.24310 12.60439 6.417537 10.57504
181 55.36300 0.000000 69.61230 19.42526 9.259468 43.73469
182 57.89910 23.70020 100.0000 32.64825 17.26230 99.49430
183 78.81400 59.54090 100.0000 53.94435 42.51570 102.3770
184 100.0000 71.01280 100.0000 77.02099 62.60431 104.4496
185 0.000000 0.000000 0.000000 0.098207 0.103404 0.111880
186 0.764500 0.764500 0.764500 0.157292 0.167039 0.194155
187 18.00640 9.058700 0.000000 1.449163 1.242335 0.348551
188 53.62410 19.77870 0.000000 11.73256 7.943026 0.870669
189 63.88300 39.38730 42.01290 22.62747 18.36432 16.33306
190 70.37480 38.13860 54.15400 27.86203 20.47937 26.69693
191 27.97120 40.74420 18.61370 8.072068 11.42761 4.565733
192 47.23620 50.40000 31.25890 17.08410 20.19976 10.71341
193 49.37320 74.00890 77.71840 36.75232 44.71518 60.51159
194 100.0000 0.000000 19.42670 42.79244 22.44561 5.599968
195 100.0000 0.000000 35.01760 43.86121 22.86196 11.94031
196 100.0000 0.000000 48.51700 45.88003 23.69285 21.80656
197 100.0000 0.000000 63.20280 48.62635 24.79782 36.70104
198 100.0000 0.000000 80.17230 53.32244 26.72068 61.06768
199 100.0000 27.02820 85.12030 57.23086 31.95238 70.13266
200 31.96210 27.40370 0.000000 5.747462 6.291788 0.852029
201 44.28980 28.82010 0.000000 9.285937 8.417378 1.020938
202 73.31750 36.92780 0.000000 24.91359 19.04003 1.952641
203 74.59340 59.23920 77.34680 42.54598 37.28799 58.45801
204 38.53720 0.000000 100.0000 23.79737 10.25172 99.16386
205 68.51460 0.000000 100.0000 36.98138 17.12495 99.42573
206 100.0000 0.000000 100.0000 61.01631 29.74640 100.3142
207 100.0000 30.63900 100.0000 63.80135 35.53407 101.0649
208 100.0000 41.25010 26.88020 48.20513 33.06859 9.381476
209 100.0000 51.05190 42.65760 52.72398 39.25739 19.37141
210 59.28030 38.74230 0.000000 17.39109 15.80694 1.779440
211 67.17230 47.13520 25.41160 24.83832 22.92318 8.269948
212 69.41190 60.03140 29.94790 31.05122 32.91553 11.62918
213 32.80450 23.60280 100.0000 23.94810 12.73008 99.55121
214 31.42790 42.19150 100.0000 27.35890 20.06845 100.6664
215 0.000000 32.30870 76.72750 13.50460 10.41409 55.19210
216 30.68160 52.96300 76.96010 21.90918 22.93225 56.42338
217 46.23780 69.24960 100.0000 41.58157 42.62132 102.9158
218 56.41940 80.15800 100.0000 51.26201 56.20951 104.0401
219 20.65240 33.40980 48.35250 8.442013 8.798922 20.54039
220 38.97830 71.49730 50.44100 25.63281 37.47953 26.57048
221 71.81400 77.35520 52.44150 43.85541 51.95700 29.90388
222 81.83270 67.16190 0.000000 40.78710 42.95966 5.110602
223 100.0000 81.97310 42.76710 66.92543 68.35632 24.26057
224 100.0000 83.20040 71.65580 73.48936 72.05043 54.74721
225 33.07110 14.36520 0.000000 4.540692 3.427880 0.528023
226 46.65820 25.97270 13.02750 10.03972 8.170700 2.479215
227 49.26270 28.39350 29.35310 12.37777 9.854398 7.980930
228 72.61900 31.44780 42.60500 26.10644 17.74880 16.59634
229 4.807700 0.000000 0.000000 0.228898 0.169909 0.132377
230 7.425700 0.000000 0.000000 0.360399 0.247343 0.171668
231 10.20410 0.000000 0.000000 0.539210 0.350612 0.217642
232 0.000000 4.807700 0.000000 0.230028 0.350901 0.230308
233 0.000000 7.425700 0.000000 0.330982 0.546638 0.276965
234 0.000000 10.20410 0.000000 0.469265 0.819128 0.322010
235 0.000000 100.0000 27.65390 36.32660 71.77698 17.10568
236 34.38210 100.0000 34.53760 41.17810 74.12706 21.08775
237 64.41480 100.0000 48.20230 54.58086 80.91309 30.69345
238 0.000000 16.42470 58.99690 6.597141 4.078470 29.96039
239 44.06520 21.24130 70.48880 16.46472 9.632908 44.98722
240 64.44260 23.31790 83.38580 29.67377 16.55394 65.94432
241 0.000000 0.000000 23.25580 0.905541 0.436176 4.277321
242 62.04790 0.000000 27.49450 15.71766 8.146980 6.724594
243 75.12340 0.000000 18.97650 22.70653 11.88800 4.002540
244 76.40140 0.000000 64.85750 30.02098 14.94979 38.16694
245 100.0000 52.59540 70.54390 58.78202 42.56235 48.49537
246 39.32640 0.000000 18.78080 5.978260 3.124525 3.071275
247 39.66400 0.000000 34.90850 7.341027 3.678963 10.19959
248 47.09400 14.58840 41.67510 11.44428 6.755708 14.71064
249 78.64520 42.00250 100.0000 48.42428 30.95947 101.2232
250 100.0000 52.65760 100.0000 69.09105 46.54171 102.2130
251 0.000000 10.94960 16.29390 0.885350 1.068091 2.318402
252 0.000000 30.30040 16.70270 3.103029 5.521256 3.122599
253 27.32850 60.36870 62.28410 20.27853 26.88958 37.13185
254 0.000000 39.48630 35.78630 6.553098 10.03582 11.74633
255 35.86700 46.87850 34.96970 12.77372 16.49023 11.93045
256 36.46690 50.60910 53.81980 16.76841 19.67385 26.90674
257 17.95200 20.57330 50.20090 6.456856 4.720182 22.05382
258 45.88720 25.56530 60.36790 15.24360 10.13779 32.41080
259 57.60490 58.63830 80.77520 34.16990 32.46820 63.64589
260 67.41610 72.84500 100.0000 52.84857 51.23572 103.2363
261 100.0000 100.0000 100.0000 94.90616 100.0024 108.6326
262 0.000000 0.000000 2.336400 0.121631 0.113219 0.242902
263 0.000000 16.65700 13.62280 1.193055 1.844740 1.973336
264 0.000000 73.69700 26.07580 18.64720 36.00530 10.62923
265 32.86520 100.0000 53.37270 43.39009 75.09439 34.96375
266 55.77540 100.0000 60.96430 52.61512 79.60887 42.99044
267 51.67260 59.11270 24.38600 21.59215 27.60684 8.815289
268 100.0000 63.97590 36.87700 56.94150 49.10134 17.32869
269 100.0000 69.36910 70.39220 65.63281 56.77859 49.95364
270 100.0000 78.36050 84.33960 74.63383 68.33724 73.60994
271 22.76100 29.18400 19.54870 4.826258 6.178739 3.927019
272 30.49560 37.30130 30.29360 8.657614 10.42810 8.758806
273 30.26190 61.36600 31.55620 16.27992 25.83497 11.67072
274 34.62120 78.60880 0.000000 24.12921 42.92205 5.794583
275 56.44570 78.87840 0.000000 32.19490 47.78249 6.271709
276 81.71600 82.58250 0.000000 48.92145 59.64701 7.722342
277 0.000000 14.59910 29.05270 2.084927 1.974771 7.279170
278 18.86350 19.94540 33.22540 4.152083 3.690784 9.764180
279 32.70040 32.70040 32.70040 8.304650 8.687801 9.681391
280 34.18800 34.18800 34.18800 9.135743 9.637600 10.50814
281 44.63120 35.98560 55.71870 15.70375 13.19018 27.70219
282 0.000000 45.73080 30.23050 7.718622 13.33024 9.416245
283 0.000000 59.37020 52.31240 15.08175 23.61446 26.02243
284 0.000000 79.91970 78.67060 31.71009 47.09256 63.18295
285 0.000000 100.0000 85.51650 47.97799 76.51762 78.33114
286 34.59530 100.0000 87.65550 52.59432 78.88158 82.47633
287 0.000000 26.04620 26.82020 3.131098 4.479312 6.473260
288 0.000000 31.32410 49.63600 6.947127 7.493020 22.01224
289 0.000000 43.21100 49.30060 9.472249 12.88231 22.05109
290 0.000000 48.12520 100.0000 25.85228 21.78419 100.3702
291 30.32160 57.42880 100.0000 31.73268 29.45412 101.4532
292 0.000000 24.81530 52.74980 6.379644 5.486371 24.35829
293 33.84400 29.00620 73.60160 15.74820 10.89023 50.16665
294 77.48540 77.48540 77.48540 54.05511 56.90354 62.09080
295 80.35710 80.35710 80.35710 58.28883 61.38725 66.71037
296 83.33330 83.33330 83.33330 62.37213 65.67438 71.66469
297 28.26550 39.23770 42.93730 10.23401 11.85537 16.53063
298 33.76020 41.31430 81.27960 20.47111 16.88179 62.48970
299 56.20970 42.20050 100.0000 35.78278 24.42352 100.9587
300 31.80140 0.000000 45.48830 6.756967 3.209776 17.64878
301 74.61470 0.000000 48.45430 25.25295 12.84050 20.71118
302 1.543200 1.543200 1.543200 0.194961 0.202245 0.237904
303 2.336400 2.336400 2.336400 0.241220 0.255780 0.292343
304 0.000000 50.78730 21.03700 8.444150 15.95273 6.129562
305 0.000000 62.90500 39.49550 14.81254 26.08987 16.65722
306 0.000000 78.50780 63.33090 26.70144 43.60521 41.02395
307 0.000000 100.0000 100.0000 53.39333 78.63308 107.1684
308 36.07460 100.0000 100.0000 57.76930 80.86806 107.1390
309 70.57460 18.02280 10.98900 20.38941 12.32903 2.588942
310 71.17280 26.68270 27.97970 22.64593 14.87375 7.702362
311 85.38460 37.32850 33.40650 35.06806 24.40931 11.68845
312 86.74810 51.41210 46.91000 41.89628 33.52396 22.42017
313 88.49350 66.56360 55.87470 51.19241 47.45722 31.95449
314 88.46250 74.28090 70.19840 57.83548 56.10511 50.21063
315 90.99020 95.81470 88.71870 78.86419 87.09059 84.30053
316 11.65950 13.75210 0.000000 1.222388 1.562171 0.407175
317 22.61900 18.69170 0.000000 2.837117 3.043235 0.536101
318 33.17390 23.35670 9.877700 5.607254 5.327116 1.681769
319 51.73140 43.01570 27.10980 16.51656 17.00178 8.019484
320 80.27780 70.40530 54.93470 46.39648 47.88068 31.19458
321 84.50910 70.10480 75.65960 53.91963 50.97221 57.61872
322 89.31400 81.68580 89.36930 68.30816 67.24965 82.38855
323 15.20630 8.212700 45.31890 4.476786 2.392363 17.64142
324 18.08690 54.84100 45.16860 13.36715 20.38613 19.48846
325 43.35920 60.03150 45.06470 20.74641 27.18081 20.42739
326 89.41230 52.47130 12.17970 41.02208 34.05930 6.025052
327 100.0000 52.73310 21.95430 51.14415 39.45305 8.967354
328 62.86220 85.59570 42.02670 41.77377 58.14335 22.61378
329 70.07780 89.02190 57.09710 51.14425 66.25187 37.23984
330 86.44990 90.33270 56.43500 62.53827 73.45613 37.06447
331 16.47530 20.21910 11.66790 2.446451 3.061266 1.825875
332 17.11940 32.00930 16.25240 4.480696 6.850868 3.124991
333 34.13690 33.49780 19.84980 7.829319 8.820612 4.519311
334 48.88240 38.50920 34.29310 14.82809 14.10358 11.09587
335 4.607000 12.86060 12.43080 1.038953 1.389021 1.719587
336 22.09410 18.06650 25.83820 3.639182 3.214390 5.966034
337 52.91010 28.09910 53.88830 17.14602 12.00469 25.65980
338 72.27020 46.70970 68.39750 34.44128 27.03730 43.79160
339 71.41340 73.22130 81.22250 48.52146 50.12010 66.41020
340 71.27880 82.56400 92.39700 57.73377 62.49545 89.43051
341 83.37220 87.74810 100.0000 72.13479 74.65782 106.1189
342 0.000000 0.000000 0.000000 0.098232 0.103584 0.112167
343 22.96120 48.66490 49.58920 12.74403 16.83951 22.46399
344 32.67130 68.51910 58.60640 24.31147 34.73119 33.68195
345 32.97730 72.94000 73.99340 30.19426 40.59818 54.56562
346 78.93760 82.02590 73.55670 56.20450 61.80304 56.57313
347 91.36890 85.60890 74.51500 67.94631 71.12917 59.04245
348 100.0000 88.66010 85.67850 81.21283 81.00320 77.55021
349 82.32710 47.47570 53.19080 38.54343 29.87246 27.08416
350 85.37840 74.77350 100.0000 65.87601 59.77810 104.2246
351 41.70330 6.255500 61.16950 12.53390 6.138250 33.17204
352 60.66870 12.90410 64.09630 21.37046 11.37257 37.34550
353 65.78500 35.71460 66.99440 27.59493 19.11127 41.27200
354 22.58180 59.36660 39.32500 14.96138 23.76917 16.00242
355 25.67860 80.48440 74.82010 33.21482 48.31908 57.38433
356 0.000000 13.70720 40.01790 3.255976 2.351236 13.70918
357 11.56340 22.79250 42.41150 4.871994 4.470176 15.30435
358 26.98390 27.11680 46.06180 8.044378 7.028442 18.36408
359 86.20760 43.19030 65.12400 42.67084 30.10583 40.36666
360 100.0000 49.85290 83.64960 62.10092 42.54239 68.99079
361 77.14930 0.000000 84.80280 36.24716 17.52862 68.11915
362 82.38170 20.56730 100.0000 47.28872 24.53519 100.4366
363 28.06240 9.645700 34.86450 5.137195 2.998085 10.27165
364 30.50640 27.88250 37.80980 7.743513 7.197724 12.45713
365 33.20690 38.07990 48.80460 11.83843 12.14275 21.22240
366 45.47270 46.51050 64.31700 20.79413 19.87540 38.83618
367 58.61050 61.01320 72.11140 32.83935 33.63227 50.34406
368 21.53870 46.69480 29.19630 9.359157 14.57677 8.842171
369 37.24840 52.84410 30.60270 14.69175 20.17982 10.32616
370 75.09540 53.78740 40.00300 33.21841 30.26356 16.93005
371 43.39420 16.44700 25.90940 8.559079 5.669045 6.049249
372 45.39650 20.54340 35.51890 10.50054 7.098078 11.09377
373 56.95820 24.23120 37.01220 15.76381 10.63430 11.88042
374 73.39030 23.64090 52.07430 27.08030 16.33614 24.30011
375 81.76170 33.57470 68.16080 37.41554 23.80130 43.32888
376 85.55380 41.27480 82.56580 46.23434 30.49443 65.70732
377 15.06290 62.74620 21.43020 14.08766 25.89207 7.868198
378 15.47800 69.26340 52.38540 20.70543 33.55022 28.03625
379 15.30920 91.61810 82.28560 41.38512 63.43856 70.55606
380 49.87330 95.70680 84.17690 53.10885 73.98662 75.07808
381 63.13800 100.0000 100.0000 68.07638 86.24721 107.4197
382 11.17690 27.22350 22.88960 3.451272 4.918212 4.834869
383 19.81310 30.42000 31.37160 5.546725 6.791104 8.830769
384 23.51750 44.93310 37.61660 10.07418 14.11270 13.52580
385 51.72210 63.98430 40.02690 25.19860 32.46190 17.51618
386 20.92150 87.22550 18.61470 27.68814 52.47954 11.42872
387 19.30050 86.95180 35.88150 28.92013 52.96728 18.96034
388 2.336400 0.000000 0.000000 0.158964 0.134178 0.121979
389 10.71230 19.68690 28.19750 2.889118 3.095266 6.945729
390 10.36360 35.51060 44.25040 7.245815 8.936730 17.63242
391 0.000000 25.42600 35.25780 3.894331 4.695814 10.77510
392 15.83750 25.37290 67.70500 10.55889 7.529357 41.21178
393 17.14150 40.41900 75.82830 15.97691 14.39483 54.30680
394 27.29200 72.36420 100.0000 38.22855 43.27544 103.3261
395 0.000000 47.95810 64.79650 13.90142 16.71636 39.10174
396 44.44840 56.02040 71.54440 25.13876 26.56062 48.72956
397 46.28160 66.66230 77.84080 32.08906 36.82163 59.39481
398 39.74200 69.22580 88.89280 35.17216 39.94924 79.65256
399 49.67500 81.60940 90.95270 45.77287 55.25138 85.66366
400 0.000000 81.24030 46.60590 25.26161 45.49738 25.07602
401 12.86180 90.75110 67.91850 36.11970 59.96439 48.45840
402 37.30920 47.98140 44.38410 14.71922 17.56610 18.40191
403 43.29650 49.62700 58.62650 19.45323 20.76937 31.58709
404 64.14690 49.86930 83.73240 35.58145 28.32926 68.51932
405 82.83070 53.99570 88.25380 50.30844 38.01271 77.64849
406 21.77750 11.35120 25.39400 3.126802 2.202965 5.703199
407 32.03800 15.72030 28.22030 5.588438 3.913451 6.938721
408 67.83400 14.43720 39.26660 20.77249 11.82557 13.59102
409 74.83790 20.98900 72.36740 32.40292 18.11522 48.65087
410 81.51200 30.73380 88.36810 43.14583 25.07526 76.14863
411 25.12620 10.49480 18.51010 3.100081 2.158277 3.073301
412 31.33000 20.78520 21.23270 5.325214 4.564986 4.297403
413 35.15990 24.20580 30.98470 7.345185 6.211983 8.372383
414 45.02010 33.13830 36.47040 12.28094 10.97620 11.76533
415 47.98680 46.21330 37.21150 16.75206 18.23994 13.72581
416 61.01660 49.35620 42.05370 24.10390 23.43423 17.29653
417 12.56530 11.39800 4.467300 1.201637 1.308377 0.659286
418 18.66690 24.97720 8.906000 3.195314 4.391258 1.526073
419 37.55840 30.15280 23.32650 8.382169 8.220317 5.243645
420 46.53210 38.96740 47.73070 15.91659 14.56856 20.93869
421 50.31740 38.67970 70.32940 22.02056 17.18030 45.73905
422 59.31060 48.77640 69.91020 28.13598 24.31507 45.62419
423 86.85730 56.84840 79.16810 51.12616 40.50234 62.07996
424 100.0000 67.01150 85.31040 69.36003 56.52336 74.18810
425 21.05230 11.59800 12.01730 2.324020 1.914897 1.710586
426 25.93910 21.63430 13.97160 4.034957 4.108617 2.269143
427 77.13430 46.30770 17.86130 30.56502 25.66155 6.201485
428 76.74690 88.08880 15.32820 49.91945 65.46353 11.94534
429 79.01330 88.96670 39.81010 53.63386 67.91349 22.78192
430 82.01220 100.0000 58.84290 67.23315 87.19941 41.66425
431 24.31350 51.63360 15.36370 10.39886 17.44366 4.811461
432 41.72500 91.32150 13.87030 35.02856 60.99787 11.58808
433 64.11160 89.55350 20.28470 43.28160 63.21384 13.02966
434 35.99730 57.01550 49.26980 18.15990 23.89972 23.79683
435 44.93480 65.98620 62.80080 27.24798 34.32751 38.66437
436 65.86640 77.64870 75.31340 45.88606 52.40172 57.76851
437 79.11980 24.52000 0.000000 26.80216 16.93670 1.564357
438 80.14180 53.31680 0.000000 34.04262 30.93963 3.415934
439 86.44760 60.92600 26.66320 42.70842 39.47541 10.79212
440 56.29400 43.51910 14.17760 17.80347 17.90553 4.312939
441 59.87750 57.76610 15.95840 24.09202 27.94712 6.376038
442 62.07500 62.46210 40.09880 29.23232 33.52776 17.54991
443 61.28430 70.34360 55.68910 34.90161 41.66099 31.53376
444 50.24330 60.14500 62.00870 26.59840 29.87994 36.81613
445 52.96610 74.14090 61.49430 33.98827 43.77902 38.67769
446 64.46380 88.80190 65.35420 49.49624 64.95020 46.44888
447 80.95440 89.89190 72.95330 61.95647 72.35312 56.88173
448 59.99140 34.48240 13.21560 17.18097 14.17552 3.445701
449 89.25510 37.92080 13.77910 36.93272 25.95883 5.038449
450 59.67510 24.93220 15.71470 15.64230 10.95686 3.450185
451 60.07460 25.52020 48.01600 19.09578 12.52746 20.58908
452 59.73800 47.96910 50.24120 24.25467 22.58659 23.90192
453 61.54940 70.85850 87.70730 44.28331 45.78061 78.56718
454 71.01260 87.28260 89.64530 59.47184 68.04278 83.92905
455 14.36220 39.93140 14.14030 5.800409 9.993624 3.304774
456 37.29210 49.47840 14.25210 12.56006 17.58142 4.427961
457 71.67410 57.35540 14.18980 30.47490 31.06416 6.280474
458 84.53760 59.86990 61.26510 45.88463 40.11968 37.15466
459 15.89670 5.088800 13.06970 1.383256 0.935145 1.635859
460 30.83780 10.07630 14.06940 3.992622 2.637172 2.079029
461 40.00420 21.21410 17.65140 7.470952 5.837579 3.266068
462 29.77780 59.97860 0.000000 14.16389 24.13516 3.145389
463 29.18450 72.76330 18.36010 20.85772 36.63649 8.744279
464 55.33680 76.93410 49.45960 34.47265 46.90523 26.80679
465 100.0000 87.65580 62.44740 74.02416 77.34565 43.34831
466 39.91870 40.61410 0.000000 10.42196 12.72773 1.598058
467 81.44730 78.46270 20.04340 47.17932 55.04440 11.30124
468 89.28300 85.07150 38.62580 58.69310 66.73770 21.05733
469 63.98080 66.02860 0.000000 29.29616 36.23544 4.513220
470 86.72660 70.18640 22.57430 46.98493 48.34427 10.72547
471 100.0000 86.32780 24.84830 67.45253 72.57146 15.00076
472 44.07630 34.49880 13.07840 10.50933 10.63139 2.939468
473 55.84930 36.72030 27.44180 16.45822 14.49098 7.763869
474 67.89440 38.04230 33.46960 23.67227 18.62691 11.23856
475 71.28950 59.55820 67.96460 38.35859 35.57585 44.53282
476 77.68350 72.33030 87.24670 53.92715 52.06939 77.13333
477 13.24170 36.06350 25.85910 5.508963 8.393297 6.739733
478 14.46820 37.42780 37.68180 7.085629 9.556936 12.90604
479 21.35340 44.42840 56.90160 12.64703 14.75568 29.58305
480 42.75000 47.78110 77.20310 23.51884 21.33600 56.94193
481 54.00280 0.000000 51.35020 15.05963 7.430244 23.20911
482 64.12550 14.86390 53.04720 21.05108 11.75025 24.88978
483 25.99970 0.000000 23.42390 3.233630 1.653378 4.625517
484 33.67190 21.41200 41.27500 8.134502 6.003680 14.84554
485 44.40800 29.85350 44.07810 12.54421 10.04233 17.10201
486 55.98960 34.77970 44.86240 18.26125 14.61377 18.03862
487 58.16160 67.78170 61.12890 33.04017 38.70348 37.14379
488 59.44030 70.79670 76.98050 39.63212 43.85404 58.91496
489 7.616300 53.30220 53.85610 13.50229 19.49843 27.00594
490 13.58430 55.67120 66.27580 17.50915 22.59706 41.24267
491 20.30360 58.69140 78.04770 22.75088 26.72107 59.39565
492 23.96840 70.48630 79.99040 29.10910 38.01396 63.78925
493 24.48930 75.19400 93.27590 36.24847 44.80968 89.46193
494 41.32580 64.02880 24.56030 19.81503 29.66983 9.448050
495 58.52760 72.39470 31.54820 31.13826 41.88751 13.75700
496 86.98910 87.20680 65.53210 63.27255 70.37537 46.77845
497 87.09150 15.80210 12.48320 31.91918 18.25370 3.546861
498 87.89500 12.77940 28.57850 33.41552 18.66090 8.353273
499 88.57450 18.20590 43.11890 36.05047 20.49593 17.20291
500 88.90520 36.74370 43.40060 39.27523 26.42925 18.59686
501 84.69420 23.53780 23.21430 31.31884 19.13255 6.454889
502 100.0000 28.75960 40.29010 47.20793 28.45975 16.27668
503 87.16960 16.02800 66.00420 38.95228 21.12543 39.96689
504 100.0000 28.93880 69.71180 52.99302 30.83276 46.15679
505 49.88410 0.000000 14.22340 9.341322 4.897109 2.188488
506 61.26200 11.62360 15.67830 14.98189 8.699057 3.165728
507 73.74440 32.02420 14.18850 24.46869 17.44159 3.913241
508 76.86110 41.75670 28.62770 29.40302 23.06579 9.335385
509 84.62140 65.04010 41.12130 44.71471 43.37036 19.75934
510 60.77970 71.47060 16.26650 30.69108 40.84226 8.468553
511 72.12180 71.76420 31.44380 38.40915 44.96755 14.02401
512 81.97820 74.30400 46.24700 47.93289 51.46733 24.73621
513 27.50910 12.52550 6.598000 3.328249 2.544668 0.959979
514 45.79740 15.06830 9.386900 8.417328 5.526097 1.572483
515 56.33720 22.60020 24.48920 14.20307 9.681422 5.789148
516 89.11950 27.09410 57.06800 39.79666 23.64156 30.35749
517 91.10170 39.55070 56.40820 43.47312 29.35250 30.09847
518 44.61020 13.47320 51.19480 11.93901 6.664000 23.15769
519 45.04280 18.25940 84.19370 20.64143 10.85952 66.38967
520 44.88250 31.81700 86.46670 23.19903 15.02816 71.06478
521 49.36150 45.63560 89.81860 29.49213 23.01240 78.41083
522 8.682500 9.034700 17.67000 1.193096 1.054599 2.723567
523 8.839400 10.26250 25.44850 1.832577 1.421945 5.659201
524 21.25810 14.57070 59.80430 8.253534 4.670046 31.68751
525 61.03070 33.88880 75.89290 27.44227 18.19579 54.73377
526 66.08010 42.65580 90.89820 37.23163 25.87429 81.82060
527 16.15210 12.18330 35.89420 3.504630 2.393784 10.87303
528 16.81840 33.00890 89.62090 18.72977 12.80801 77.35993
529 19.48710 46.21740 90.81250 22.76989 19.89083 80.89722
530 13.16120 40.50400 64.49980 12.54678 12.96126 38.44682
531 14.03000 68.48610 65.09770 23.06156 33.88258 41.90827
532 18.31920 71.07100 37.48260 19.72959 34.45580 16.94962
533 40.99620 76.68170 38.02510 27.38223 43.11922 18.30821
534 46.05380 85.41520 53.60590 36.44229 55.06927 32.25666
535 48.35070 86.11900 65.04170 39.91065 57.41929 44.74815
536 65.96680 90.37150 100.0000 62.46576 71.90687 106.2206
537 0.000000 62.21930 66.45810 19.56564 27.72396 41.97583
538 0.000000 68.13030 82.24440 26.64035 35.03680 66.53767
539 16.53690 82.94800 88.44480 38.04119 52.67488 80.86653
540 45.95250 87.48500 88.82770 47.20967 61.81977 81.92398
541 0.000000 19.55860 100.0000 20.30653 10.13426 99.56328
542 0.000000 19.70880 79.02030 12.36626 6.952075 58.35382
543 25.52170 24.10860 86.02270 16.87061 9.866572 69.46281
544 80.86150 0.000000 36.91420 27.82728 14.38312 12.31571
545 88.32940 7.875800 53.08710 36.49467 19.31109 25.24472
546 87.01540 12.93560 81.94200 43.22874 22.53059 63.67244
547 26.38800 82.03280 59.85030 30.74407 48.80665 38.02682
548 37.37730 82.77500 70.37790 35.77160 51.85276 50.64909
549 56.48850 83.57890 77.14120 45.13364 57.11103 61.77540
550 61.78880 100.0000 76.43990 59.46686 82.71395 64.20822
551 18.33260 27.22940 0.000000 3.268652 4.908501 0.753153
552 32.08260 36.21190 10.95700 7.528480 9.512846 2.628027
553 47.86430 46.78940 18.57040 15.29303 17.81983 5.545594
554 64.59800 54.72790 37.32850 27.46080 28.00789 15.13825
555 74.08640 55.14930 50.56170 34.85236 31.85106 25.35858
556 30.83860 16.77830 50.67450 8.382635 5.199647 22.53786
557 30.23130 39.67380 61.27900 14.06067 13.49433 34.50518
558 32.90300 56.57700 65.77120 20.78072 24.72011 41.13224
559 18.53360 53.75720 87.70880 23.74706 23.95971 75.38255
560 47.28910 59.05090 88.80710 32.99471 31.78620 77.80866
561 17.02510 31.89970 61.12150 10.35491 9.162768 34.03946
562 57.49840 50.92190 61.41750 25.99143 24.45748 35.73760
563 51.06370 56.72410 47.24010 22.92227 26.62333 22.13443
564 63.26450 59.11580 48.37530 29.63146 31.49784 23.39347
565 72.31340 63.05260 60.11990 38.49513 38.35034 35.65227
566 72.52170 71.66030 60.79110 43.12681 46.82575 38.07501
567 21.24440 11.55340 72.17610 10.98021 5.419497 47.13068
568 22.08060 11.07110 87.94590 15.97757 7.390822 73.13494
569 57.48470 9.080000 88.22820 26.70732 12.83307 74.80231
570 70.82040 62.89820 89.73900 46.05278 40.99069 80.89568
571 89.89020 70.92340 89.85600 63.65687 55.95284 82.26987
572 39.03700 6.251000 13.59080 5.970915 3.418774 2.091606
573 47.22960 74.12090 15.93970 26.25910 40.42464 8.512691
574 47.43550 89.29100 36.84130 37.16902 59.92278 20.03546
575 74.33400 92.29400 85.80100 63.32955 74.87948 78.06883
576 8.284400 21.08140 13.00630 1.949318 2.972548 1.969241
577 10.97000 20.78600 22.42750 2.541245 3.132824 4.489376
578 20.49730 29.14550 37.21840 6.077900 6.675008 12.19384
579 33.74020 31.00720 60.70880 12.91988 10.25417 33.45395
580 13.02130 0.000000 15.37270 1.059920 0.560127 1.978934
581 13.87150 4.238400 24.56360 1.855918 1.077785 5.132949
582 37.15400 8.269000 25.95760 6.296171 3.628503 5.926807
583 53.75050 13.67240 27.00500 12.38519 7.405780 6.570719
584 73.30210 16.31200 32.21050 23.53949 13.65569 9.653146
585 90.02330 53.66320 35.67230 44.23364 36.22436 15.04428
586 89.76540 58.72400 69.76560 51.78527 42.25521 47.89526
587 25.98110 87.36410 52.89270 32.79797 55.44402 31.83820
588 69.58950 87.09210 74.58120 53.21022 64.77111 58.63626
END_DATA
CAL    

DESCRIPTOR "Argyll Device Calibration State"
ORIGINATOR "Argyll dispread"
CREATED "Sat Aug 20 17:25:47 2022"
DEVICE_CLASS "DISPLAY"
COLOR_REP "RGB"

BEGIN_ARGYLL_DISPCAL_ARGS
-v2 -ql -m -w0.3127,0.329 -gs -f1.0 -k0 -A4.0 -d2 -c1 -yn -P0.467439073112,0.404617253949,2.11885895404
END_ARGYLL_DISPCAL_ARGS


NUMBER_OF_FIELDS 4
BEGIN_DATA_FORMAT
RGB_I RGB_R RGB_G RGB_B
END_DATA_FORMAT

NUMBER_OF_SETS 256
BEGIN_DATA
0.00000000 0.00000000 0.00000000 0.00000000
0.00392157 0.00532723 0.00512415 0.00478728
0.00784314 0.01057330 0.01016070 0.00948013
0.01176470 0.01574010 0.01511200 0.01408130
0.01568630 0.02082930 0.01998010 0.01859350
0.01960780 0.02584280 0.02476700 0.02301930
0.02352940 0.03078210 0.02947490 0.02736110
0.02745100 0.03564910 0.03410560 0.03162130
0.03137250 0.04044440 0.03866240 0.03579980
0.03529410 0.04518350 0.04315270 0.03990770
0.03921570 0.04985600 0.04757850 0.04396650
0.04313730 0.05446530 0.05194020 0.04797290
0.04705880 0.05901980 0.05624650 0.05193560
0.05098040 0.06352690 0.06049820 0.05586210
0.05490200 0.06800710 0.06469970 0.05975460
0.05882350 0.07247960 0.06886430 0.06362850
0.06274510 0.07695240 0.07299660 0.06749120
0.06666670 0.08141250 0.07709090 0.07133990
0.07058820 0.08583790 0.08113970 0.07517090
0.07450980 0.09023530 0.08514370 0.07897900
0.07843140 0.09460490 0.08910310 0.08275120
0.08235290 0.09893240 0.09302070 0.08648350
0.08627450 0.10321600 0.09689910 0.09018390
0.09019610 0.10745200 0.10074000 0.09385460
0.09411760 0.11163100 0.10454100 0.09748970
0.09803920 0.11575500 0.10830100 0.10108200
0.10196100 0.11983100 0.11201800 0.10463200
0.10588200 0.12386700 0.11569500 0.10814600
0.10980400 0.12786200 0.11933600 0.11163500
0.11372500 0.13179600 0.12293800 0.11510700
0.11764700 0.13565900 0.12649700 0.11856300
0.12156900 0.13944400 0.13001200 0.12201100
0.12549000 0.14315400 0.13347700 0.12545200
0.12941200 0.14679800 0.13689100 0.12888600
0.13333300 0.15039300 0.14025900 0.13231500
0.13725500 0.15394100 0.14359600 0.13573300
0.14117600 0.15744200 0.14690200 0.13914500
0.14509800 0.16089600 0.15017900 0.14255300
0.14902000 0.16430200 0.15343200 0.14596000
0.15294100 0.16765800 0.15666300 0.14936100
0.15686300 0.17097900 0.15987400 0.15275200
0.16078400 0.17426900 0.16307100 0.15613000
0.16470600 0.17753300 0.16625900 0.15949700
0.16862700 0.18077900 0.16943900 0.16285200
0.17254900 0.18400700 0.17260900 0.16619400
0.17647100 0.18722300 0.17576800 0.16952800
0.18039200 0.19043200 0.17891700 0.17286000
0.18431400 0.19364100 0.18205700 0.17619600
0.18823500 0.19685600 0.18519400 0.17954000
0.19215700 0.20008700 0.18833000 0.18290500
0.19607800 0.20335400 0.19146700 0.18629400
0.20000000 0.20666500 0.19461300 0.18970900
0.20392200 0.21001900 0.19777000 0.19315100
0.20784300 0.21340900 0.20093700 0.19662200
0.21176500 0.21683200 0.20411600 0.20012200
0.21568600 0.22028800 0.20730100 0.20365200
0.21960800 0.22377200 0.21049300 0.20721000
0.22352900 0.22728300 0.21369300 0.21079100
0.22745100 0.23082300 0.21690100 0.21438800
0.23137300 0.23438700 0.22011900 0.21799500
0.23529400 0.23796500 0.22334400 0.22160500
0.23921600 0.24155500 0.22657200 0.22521200
0.24313700 0.24514700 0.22980200 0.22881100
0.24705900 0.24874900 0.23303400 0.23240300
0.25098000 0.25236600 0.23626900 0.23598800
0.25490200 0.25598900 0.23951500 0.23956400
0.25882400 0.25961800 0.24277900 0.24311300
0.26274500 0.26325300 0.24606000 0.24663000
0.26666700 0.26690600 0.24935800 0.25011900
0.27058800 0.27057400 0.25267500 0.25358700
0.27451000 0.27425600 0.25601200 0.25704300
0.27843100 0.27794400 0.25936900 0.26049700
0.28235300 0.28163200 0.26274300 0.26395500
0.28627500 0.28532700 0.26613600 0.26741600
0.29019600 0.28903100 0.26954700 0.27088300
0.29411800 0.29273200 0.27297800 0.27435300
0.29803900 0.29642100 0.27642500 0.27781600
0.30196100 0.30010000 0.27987400 0.28127900
0.30588200 0.30376700 0.28332300 0.28474400
0.30980400 0.30741500 0.28676800 0.28820400
0.31372500 0.31103800 0.29020800 0.29165400
0.31764700 0.31463400 0.29364200 0.29508400
0.32156900 0.31821500 0.29707100 0.29849300
0.32549000 0.32177800 0.30049900 0.30189100
0.32941200 0.32531600 0.30392900 0.30527100
0.33333300 0.32882700 0.30736300 0.30862700
0.33725500 0.33231900 0.31079600 0.31195900
0.34117600 0.33579900 0.31422900 0.31526700
0.34509800 0.33928700 0.31766400 0.31856200
0.34902000 0.34278300 0.32111000 0.32185000
0.35294100 0.34628700 0.32456800 0.32513100
0.35686300 0.34980500 0.32803400 0.32840500
0.36078400 0.35335000 0.33150500 0.33167500
0.36470600 0.35692100 0.33498400 0.33494800
0.36862700 0.36051600 0.33846900 0.33822700
0.37254900 0.36414700 0.34196500 0.34150800
0.37647100 0.36782400 0.34547400 0.34479500
0.38039200 0.37155300 0.34899500 0.34809200
0.38431400 0.37533800 0.35252800 0.35140200
0.38823500 0.37916600 0.35607500 0.35472500
0.39215700 0.38302700 0.35963900 0.35806500
0.39607800 0.38691700 0.36321600 0.36142500
0.40000000 0.39082400 0.36680100 0.36480400
0.40392200 0.39474000 0.37039400 0.36820000
0.40784300 0.39865600 0.37399100 0.37161000
0.41176500 0.40256600 0.37758800 0.37503100
0.41568600 0.40644000 0.38118500 0.37846500
0.41960800 0.41027000 0.38478500 0.38190900
0.42352900 0.41406100 0.38837800 0.38535800
0.42745100 0.41781900 0.39195100 0.38881400
0.43137300 0.42155200 0.39550000 0.39227100
0.43529400 0.42525800 0.39902500 0.39573000
0.43921600 0.42894400 0.40252400 0.39918100
0.44313700 0.43262400 0.40599700 0.40261900
0.44705900 0.43631000 0.40944200 0.40604900
0.45098000 0.44001200 0.41286000 0.40947500
0.45490200 0.44374800 0.41625700 0.41290100
0.45882400 0.44752600 0.41964600 0.41632600
0.46274500 0.45134500 0.42302700 0.41976500
0.46666700 0.45520600 0.42640600 0.42322300
0.47058800 0.45909800 0.42978100 0.42669300
0.47451000 0.46300500 0.43315600 0.43017900
0.47843100 0.46691900 0.43653300 0.43368900
0.48235300 0.47084300 0.43991200 0.43723000
0.48627500 0.47477800 0.44329600 0.44080000
0.49019600 0.47872500 0.44668600 0.44439500
0.49411800 0.48267800 0.45008500 0.44801700
0.49803900 0.48662400 0.45350100 0.45166500
0.50196100 0.49056100 0.45693800 0.45533800
0.50588200 0.49449000 0.46040000 0.45902800
0.50980400 0.49841000 0.46389100 0.46272900
0.51372500 0.50233400 0.46741200 0.46644300
0.51764700 0.50626800 0.47096500 0.47016800
0.52156900 0.51020300 0.47455000 0.47390700
0.52549000 0.51413900 0.47817500 0.47764500
0.52941200 0.51807600 0.48184600 0.48134700
0.53333300 0.52201600 0.48555500 0.48501400
0.53725500 0.52597300 0.48929800 0.48864700
0.54117600 0.52995200 0.49307600 0.49224500
0.54509800 0.53395400 0.49688900 0.49581300
0.54902000 0.53797300 0.50073700 0.49936000
0.55294100 0.54199200 0.50462000 0.50288800
0.55686300 0.54599100 0.50853300 0.50639700
0.56078400 0.54996800 0.51247200 0.50989700
0.56470600 0.55393000 0.51643000 0.51339000
0.56862700 0.55787900 0.52039800 0.51687900
0.57254900 0.56181700 0.52436800 0.52037200
0.57647100 0.56573800 0.52833900 0.52387400
0.58039200 0.56964800 0.53231300 0.52739000
0.58431400 0.57354000 0.53629200 0.53093100
0.58823500 0.57740200 0.54027400 0.53449800
0.59215700 0.58123900 0.54426200 0.53809900
0.59607800 0.58506100 0.54826100 0.54173200
0.60000000 0.58887300 0.55226800 0.54538600
0.60392200 0.59267200 0.55626100 0.54905400
0.60784300 0.59645900 0.56024300 0.55274800
0.61176500 0.60023600 0.56421900 0.55646300
0.61568600 0.60402600 0.56818900 0.56019200
0.61960800 0.60785100 0.57215600 0.56393000
0.62352900 0.61171300 0.57611500 0.56766800
0.62745100 0.61561700 0.58007300 0.57140900
0.63137300 0.61956400 0.58404000 0.57515300
0.63529400 0.62355000 0.58801700 0.57890200
0.63921600 0.62757300 0.59200300 0.58266200
0.64313700 0.63161200 0.59600100 0.58642400
0.64705900 0.63566200 0.60001200 0.59018100
0.65098000 0.63971300 0.60403300 0.59393500
0.65490200 0.64374700 0.60805500 0.59769200
0.65882400 0.64775700 0.61207800 0.60145200
0.66274500 0.65174800 0.61609800 0.60521000
0.66666700 0.65572400 0.62011800 0.60897000
0.67058800 0.65968500 0.62413800 0.61272500
0.67451000 0.66363400 0.62815500 0.61647600
0.67843100 0.66757000 0.63217300 0.62022900
0.68235300 0.67149500 0.63619400 0.62399000
0.68627500 0.67539800 0.64022000 0.62776400
0.69019600 0.67927500 0.64424800 0.63155300
0.69411800 0.68312700 0.64826000 0.63534700
0.69803900 0.68696600 0.65223800 0.63913000
0.70196100 0.69080200 0.65618100 0.64290000
0.70588200 0.69464400 0.66009000 0.64666000
0.70980400 0.69848100 0.66397100 0.65041300
0.71372500 0.70231700 0.66782800 0.65416300
0.71764700 0.70614900 0.67165600 0.65792400
0.72156900 0.70997300 0.67545100 0.66169300
0.72549000 0.71377600 0.67921500 0.66547200
0.72941200 0.71756100 0.68295200 0.66925300
0.73333300 0.72134700 0.68666400 0.67303300
0.73725500 0.72512600 0.69035800 0.67681700
0.74117600 0.72889500 0.69405000 0.68061300
0.74509800 0.73266200 0.69773800 0.68442300
0.74902000 0.73644100 0.70142400 0.68824100
0.75294100 0.74024100 0.70510800 0.69206900
0.75686300 0.74405200 0.70879600 0.69591800
0.76078400 0.74787000 0.71249200 0.69979500
0.76470600 0.75170700 0.71619300 0.70369600
0.76862700 0.75556000 0.71989800 0.70761500
0.77254900 0.75942600 0.72361600 0.71155100
0.77647100 0.76330700 0.72736000 0.71548500
0.78039200 0.76721400 0.73112800 0.71940700
0.78431400 0.77115100 0.73492100 0.72331900
0.78823500 0.77511900 0.73874100 0.72722000
0.79215700 0.77912100 0.74258700 0.73110700
0.79607800 0.78316100 0.74646200 0.73496300
0.80000000 0.78724600 0.75036500 0.73877900
0.80392200 0.79138600 0.75429600 0.74256900
0.80784300 0.79558400 0.75825300 0.74634000
0.81176500 0.79983200 0.76223700 0.75009100
0.81568600 0.80410400 0.76625400 0.75383000
0.81960800 0.80837600 0.77030200 0.75756600
0.82352900 0.81265500 0.77435900 0.76129700
0.82745100 0.81695500 0.77841500 0.76501600
0.83137300 0.82128400 0.78247100 0.76872800
0.83529400 0.82562000 0.78653200 0.77244600
0.83921600 0.82994700 0.79059900 0.77618400
0.84313700 0.83425500 0.79467400 0.77994900
0.84705900 0.83856100 0.79876200 0.78374600
0.85098000 0.84288000 0.80286500 0.78756700
0.85490200 0.84721700 0.80699700 0.79141100
0.85882400 0.85155800 0.81115900 0.79527800
0.86274500 0.85589300 0.81534700 0.79916800
0.86666700 0.86022300 0.81955100 0.80308500
0.87058800 0.86453100 0.82377300 0.80702500
0.87451000 0.86882000 0.82800700 0.81099500
0.87843100 0.87310800 0.83223200 0.81499400
0.88235300 0.87740400 0.83644800 0.81900800
0.88627500 0.88168300 0.84066500 0.82303400
0.89019600 0.88593300 0.84488000 0.82707000
0.89411800 0.89016500 0.84908300 0.83112300
0.89803900 0.89438400 0.85327300 0.83520100
0.90196100 0.89858600 0.85745000 0.83929900
0.90588200 0.90277400 0.86161900 0.84342600
0.90980400 0.90694300 0.86578400 0.84757700
0.91372500 0.91109300 0.86994800 0.85175300
0.91764700 0.91523300 0.87411000 0.85595200
0.92156900 0.91935600 0.87827000 0.86016500
0.92549000 0.92347000 0.88242700 0.86439900
0.92941200 0.92758100 0.88658500 0.86866100
0.93333300 0.93169000 0.89074300 0.87294000
0.93725500 0.93579800 0.89490800 0.87723000
0.94117600 0.93989600 0.89908200 0.88151700
0.94509800 0.94399300 0.90325500 0.88580100
0.94902000 0.94808600 0.90743100 0.89009300
0.95294100 0.95217100 0.91161400 0.89441400
0.95686300 0.95624700 0.91580100 0.89876400
0.96078400 0.96032200 0.91999200 0.90313500
0.96470600 0.96439000 0.92418700 0.90752700
0.96862700 0.96845100 0.92838500 0.91193400
0.97254900 0.97250300 0.93258600 0.91636500
0.97647100 0.97654700 0.93679000 0.92081700
0.98039200 0.98058100 0.94099600 0.92528700
0.98431400 0.98460700 0.94520400 0.92977300
0.98823500 0.98862500 0.94941500 0.93427600
0.99215700 0.99263400 0.95362800 0.93879600
0.99607800 0.99663400 0.95784400 0.94333300
1.00000000 1.00000000 0.96206200 0.94788700
END_DATA
