CTI3   

DESCRIPTOR "Argyll Calibration Target chart information 3"
ORIGINATOR "Argyll dispread"
CREATED "Mon Sep 28 21:39:48 2020"
DEVICE_CLASS "DISPLAY"
SINGLE_DIM_STEPS "21"
COMP_GREY_STEPS "61"
DARK_REGION_EMPHASIS "1.6"
COLOR_REP "RGB_XYZ"
TARGET_INSTRUMENT "X-Rite i1 DisplayPro, ColorMunki Display"
DISPLAY_TYPE_REFRESH "NO"
DISPLAY_TYPE_BASE_ID "1"
INSTRUMENT_TYPE_SPECTRAL "NO"
LUMINANCE_XYZ_CDM2 "87.467983 91.727069 99.514992"
NORMALIZED_TO_Y_100 "YES"
VIDEO_LUT_CALIBRATION_POSSIBLE "YES"

BEGIN_ARGYLL_COLPROF_ARGS
-v -qh -aX -bn -C "No copyright. Created with DisplayCAL 3.8.9.3 and ArgyllCMS 2.1.2" -M "27531" -A "AU Optronics"
END_ARGYLL_COLPROF_ARGS

OBSERVER "1931_2"
USE_BLACK_POINT_COMPENSATION "NO"
BLACK_POINT_CORRECTION "0.0"
HIRES_B2A "YES"
HIRES_B2A_SIZE "-1"
SMOOTH_B2A "YES"
PATCH_SEQUENCE "OPTIMIZE_DISPLAY_RESPONSE_DELAY"

NUMBER_OF_FIELDS 7
BEGIN_DATA_FORMAT
SAMPLE_ID RGB_R RGB_G RGB_B XYZ_X XYZ_Y XYZ_Z
END_DATA_FORMAT

NUMBER_OF_SETS 588
BEGIN_DATA
1 100.00000 100.00000 100.00000 95.356780 100.00000 108.49030
2 1.9608000 1.9608000 1.9608000 0.1332000 0.1361650 0.2008040
3 3.9216000 3.9216000 3.9216000 0.2634860 0.2822240 0.3666230
4 5.8824000 5.8824000 5.8824000 0.4656720 0.5010410 0.6065760
5 9.8039000 9.8039000 9.8039000 1.0083080 1.0622910 1.1969260
6 13.726000 13.726000 13.726000 1.7458640 1.8728630 2.0986540
7 17.647000 17.647000 17.647000 2.6541030 2.8029750 3.0717650
8 21.569000 21.569000 21.569000 3.7245200 3.9395050 4.2947910
9 25.490000 25.490000 25.490000 5.2329160 5.5366620 6.0151140
10 29.412000 29.412000 29.412000 6.9314440 7.2075210 8.0624940
11 33.333000 33.333000 33.333000 8.9505300 9.4356230 10.172300
12 37.255000 37.255000 37.255000 11.134580 11.668500 12.507140
13 41.176000 41.176000 41.176000 13.787880 14.478590 15.694940
14 45.098000 45.098000 45.098000 16.754630 17.612590 18.998870
15 49.020000 49.020000 49.020000 19.922120 20.792940 22.891260
16 52.941000 52.941000 52.941000 23.687340 24.901650 26.927950
17 56.863000 56.863000 56.863000 28.184140 29.471410 32.020400
18 60.784000 60.784000 60.784000 32.822430 34.552760 37.145970
19 64.706000 64.706000 64.706000 38.027890 39.984260 43.137930
20 68.627000 68.627000 68.627000 43.630110 45.877030 49.347080
21 72.549000 72.549000 72.549000 49.973310 52.385130 56.350730
22 76.471000 76.471000 76.471000 57.187510 59.991370 64.555440
23 80.392000 80.392000 80.392000 65.661200 68.958460 74.156420
24 84.314000 84.314000 84.314000 69.767390 73.150090 79.330260
25 88.235000 88.235000 88.235000 76.721440 80.738500 87.114390
26 92.157000 92.157000 92.157000 80.869460 84.953970 92.076160
27 96.078000 96.078000 96.078000 82.847450 86.819680 94.429420
28 100.00000 47.825300 24.378100 47.804880 31.211180 5.7339610
29 100.00000 53.701300 68.764000 54.653700 36.295380 30.568290
30 100.00000 61.791100 84.687700 61.917260 42.987250 56.804220
31 0.0000000 73.129400 29.869400 21.092120 40.501770 14.900000
32 0.0000000 82.492200 57.825400 32.752070 57.850860 38.769550
33 0.0000000 100.00000 77.522900 42.975420 76.010690 49.860870
34 47.396600 100.00000 80.444900 48.634830 78.485520 53.959460
35 87.459700 100.00000 91.700000 76.656430 93.169840 82.505780
36 4.8077000 0.0000000 0.0000000 0.2191800 0.1558780 0.1566820
37 7.4257000 0.0000000 0.0000000 0.3484060 0.2208120 0.1543020
38 10.204100 0.0000000 0.0000000 0.5168970 0.3084360 0.1589130
39 13.157900 0.0000000 0.0000000 0.7713100 0.4400570 0.1651000
40 16.304300 0.0000000 0.0000000 1.1031650 0.6113360 0.1739330
41 19.662900 0.0000000 0.0000000 1.4599550 0.7958670 0.1835120
42 23.255800 0.0000000 0.0000000 1.9784720 1.0641280 0.1972470
43 27.108400 0.0000000 0.0000000 2.6872790 1.4309720 0.2156650
44 31.250000 0.0000000 0.0000000 3.6715020 1.9397520 0.2415670
45 35.714300 0.0000000 0.0000000 4.7480060 2.4966200 0.2702390
46 40.540500 0.0000000 0.0000000 6.1313930 3.2119940 0.3066950
47 48.935000 0.0000000 0.0000000 9.2862110 4.8429430 0.3909240
48 51.470600 0.0000000 0.0000000 10.264460 5.3488890 0.4170940
49 57.692300 0.0000000 0.0000000 13.697820 7.1244280 0.5074370
50 64.516100 0.0000000 0.0000000 17.737630 9.2155900 0.6118520
51 72.033900 0.0000000 0.0000000 23.160860 12.018850 0.7547970
52 80.357100 0.0000000 0.0000000 30.805260 15.973670 0.9507160
53 89.622600 0.0000000 0.0000000 36.001060 18.743270 1.1092620
54 100.00000 0.0000000 78.180300 50.872670 25.583660 38.421540
55 100.00000 0.0000000 100.00000 62.591750 30.489360 98.890950
56 100.00000 30.103000 100.00000 64.759050 34.088750 100.42810
57 100.00000 53.495600 100.00000 69.579690 42.600310 103.07070
58 38.290800 30.878800 27.027900 10.295370 9.8567870 7.8481120
59 37.382000 65.771200 35.831300 23.954710 36.699040 17.256920
60 74.520400 100.00000 46.995900 54.378830 83.490570 25.014350
61 82.889800 100.00000 78.757500 65.610760 88.705980 53.285180
62 0.0000000 23.255800 0.0000000 1.7824420 3.5587430 0.7577000
63 0.0000000 27.108400 0.0000000 2.2688270 4.5480590 0.9264760
64 0.0000000 31.250000 0.0000000 2.9762260 5.9975380 1.1736070
65 0.0000000 35.714300 0.0000000 3.8650140 7.8271480 1.4943180
66 0.0000000 40.540500 0.0000000 4.9701500 10.084970 1.8835960
67 0.0000000 45.774700 0.0000000 6.5891210 13.397640 2.4621040
68 0.0000000 51.470600 0.0000000 8.2093390 16.698950 3.0350140
69 0.0000000 57.692300 0.0000000 10.926350 22.328050 4.0129030
70 0.0000000 64.516100 0.0000000 14.534800 29.657250 5.2841370
71 0.0000000 72.033900 0.0000000 18.869940 38.580380 6.8169880
72 0.0000000 80.357100 0.0000000 25.136740 51.354910 9.0168880
73 29.466600 82.857400 0.0000000 29.624740 55.896560 9.6435620
74 44.657000 100.00000 0.0000000 39.689650 74.143830 12.529430
75 51.626100 100.00000 37.436900 42.634480 75.317280 19.403770
76 0.0000000 0.0000000 4.8077000 0.1453020 0.1118110 0.4448290
77 0.0000000 0.0000000 7.4257000 0.2049050 0.1359540 0.7589830
78 0.0000000 0.0000000 10.204100 0.2796830 0.1668880 1.1488160
79 0.0000000 0.0000000 13.157900 0.4129000 0.2213830 1.8418140
80 0.0000000 0.0000000 16.304300 0.5624280 0.2830380 2.6307200
81 0.0000000 0.0000000 19.662900 0.7107260 0.3440160 3.3944520
82 0.0000000 0.0000000 23.255800 0.9255510 0.4323480 4.5163850
83 0.0000000 0.0000000 27.108400 1.2377280 0.5608080 6.1545140
84 0.0000000 0.0000000 31.250000 1.6733260 0.7406610 8.4200580
85 0.0000000 0.0000000 35.714300 2.0984540 0.9157560 10.650380
86 0.0000000 0.0000000 40.540500 2.7180840 1.1701470 13.865430
87 0.0000000 0.0000000 45.774700 3.5125170 1.4979050 18.011280
88 0.0000000 0.0000000 51.470600 4.4742600 1.8950720 23.049370
89 0.0000000 0.0000000 57.692300 5.8160320 2.4475340 30.024260
90 0.0000000 0.0000000 64.516100 7.6338890 3.1968270 39.520810
91 0.0000000 0.0000000 72.033900 9.9478320 4.1476260 51.554840
92 0.0000000 0.0000000 80.357100 13.200830 5.5044880 68.562870
93 0.0000000 0.0000000 89.622600 15.739290 6.5556310 81.743820
94 0.0000000 38.614600 100.00000 21.148570 13.049510 97.314570
95 0.7645000 0.7645000 0.7645000 0.0972011 0.0963081 0.1648860
96 1.5432000 1.5432000 1.5432000 0.1194450 0.1211860 0.1880460
97 2.3364000 2.3364000 2.3364000 0.1708800 0.1753920 0.2454700
98 3.1447000 3.1447000 3.1447000 0.2082110 0.2141690 0.2867930
99 3.9683000 3.9683000 3.9683000 0.2747000 0.2942920 0.3822260
100 4.8077000 4.8077000 4.8077000 0.3818310 0.3973930 0.4848850
101 5.6634000 5.6634000 5.6634000 0.4498240 0.4703200 0.5638750
102 6.5359000 6.5359000 6.5359000 0.5821870 0.6346260 0.7620340
103 7.4257000 7.4257000 7.4257000 0.7061400 0.7400300 0.8535620
104 8.3333000 8.3333000 8.3333000 0.8036180 0.8461360 0.9658190
105 9.2593000 9.2593000 9.2593000 0.9931130 1.0457740 1.1813160
106 10.204100 10.204100 10.204100 1.1022530 1.1610070 1.3036240
107 11.168400 11.168400 11.168400 1.2579590 1.3252450 1.4824000
108 12.152800 12.152800 12.152800 1.4776970 1.5899330 1.7958790
109 13.157900 13.157900 13.157900 1.7718300 1.8881310 2.1088580
110 14.184400 14.184400 14.184400 1.9465400 2.0531900 2.2639720
111 15.233000 15.233000 15.233000 2.2379270 2.3867890 2.6474760
112 16.304300 16.304300 16.304300 2.5238490 2.6545130 3.0041190
113 17.399300 17.399300 17.399300 2.7262030 2.8695720 3.2106370
114 18.518500 18.518500 18.518500 2.9969360 3.1682080 3.4659620
115 19.662900 19.662900 19.662900 3.3491770 3.5613310 3.9073250
116 20.833300 20.833300 20.833300 3.7175060 3.9235620 4.3538480
117 22.030700 22.030700 22.030700 4.1119610 4.3557440 4.7453950
118 23.255800 23.255800 23.255800 4.5241670 4.7862370 5.2092090
119 24.509800 24.509800 24.509800 5.0091210 5.2996850 5.7621530
120 25.793600 25.793600 25.793600 5.6033090 5.9342850 6.4443340
121 27.108400 27.108400 27.108400 6.1419610 6.4422970 7.0995810
122 28.455300 28.455300 28.455300 6.8341770 7.1277150 7.9337550
123 29.835400 29.835400 29.835400 7.4545540 7.7378190 8.6684760
124 31.250000 31.250000 31.250000 8.3146520 8.6255620 9.6869550
125 32.700400 32.700400 32.700400 8.9355700 9.3288740 10.345150
126 34.188000 34.188000 34.188000 9.8401840 10.388300 11.210150
127 35.714300 35.714300 35.714300 10.797210 11.292380 12.321760
128 37.280700 37.280700 37.280700 11.754250 12.313830 13.201180
129 38.888900 38.888900 38.888900 12.878950 13.508590 14.492350
130 40.540500 40.540500 40.540500 13.936730 14.569820 16.022430
131 42.237400 42.237400 42.237400 15.586620 16.290650 17.794810
132 43.981500 43.981500 43.981500 16.795280 17.624710 19.272740
133 45.774700 45.774700 45.774700 18.404090 19.351420 20.898320
134 47.619100 47.619100 47.619100 19.633640 20.589280 22.550520
135 49.516900 49.516900 49.516900 21.476590 22.330340 24.629480
136 51.470600 51.470600 51.470600 23.246930 24.199450 26.505740
137 53.482600 53.482600 53.482600 25.593240 26.817260 28.820740
138 55.555600 55.555600 55.555600 28.575500 29.855340 32.522640
139 57.692300 57.692300 57.692300 30.305170 31.619870 34.447520
140 59.895800 59.895800 59.895800 33.928560 35.548130 38.654560
141 62.169300 62.169300 62.169300 37.011890 38.795410 41.659320
142 64.516100 64.516100 64.516100 40.247970 42.309850 45.655290
143 66.939900 66.939900 66.939900 43.757180 45.947260 50.310880
144 69.444400 69.444400 69.444400 47.543110 49.975400 53.903240
145 72.033900 72.033900 72.033900 52.336600 54.958590 59.189460
146 74.712600 74.712600 74.712600 57.375690 60.226140 64.683460
147 77.485400 77.485400 77.485400 62.383140 65.322480 70.380640
148 80.357100 80.357100 80.357100 69.374380 72.869150 78.625250
149 83.333300 83.333300 83.333300 72.759580 76.559650 82.618710
150 86.419700 86.419700 86.419700 77.580810 81.435030 88.296430
151 89.622600 89.622600 89.622600 84.017940 88.300890 96.092700
152 100.00000 25.905000 0.0000000 44.735430 24.992510 1.7076220
153 100.00000 42.900500 0.0000000 46.890460 29.434120 2.4872990
154 100.00000 56.988800 0.0000000 51.049770 36.159000 3.5917790
155 59.059400 46.054000 34.026200 24.173920 22.750590 13.225580
156 61.882700 45.649100 54.693400 29.676230 25.388210 31.065450
157 15.450400 39.856300 38.183200 8.4323350 11.851200 14.234460
158 15.471000 46.116300 83.784300 21.089690 18.615120 76.739850
159 25.375200 49.544900 100.00000 24.211720 17.435770 97.389720
160 26.214900 43.613300 0.0000000 8.4290890 13.292730 2.2824650
161 44.703700 56.748100 0.0000000 18.326850 25.555780 4.0595650
162 63.359300 66.464200 0.0000000 31.952690 39.336930 5.8932140
163 83.766000 70.587900 29.168400 48.695570 48.340930 12.574090
164 0.0000000 50.592900 22.634700 8.6849360 16.335490 7.1186010
165 0.0000000 52.582200 62.129200 15.284080 20.245300 38.147270
166 0.0000000 64.802200 82.826000 26.924100 32.818820 75.908610
167 0.0000000 66.807500 100.00000 26.736460 25.430960 96.578510
168 30.230400 0.0000000 50.922200 7.6142020 3.5327610 22.284980
169 31.854800 0.0000000 71.487400 13.137140 5.8511060 49.286010
170 73.317100 0.0000000 100.00000 31.576270 14.483040 92.955830
171 27.768600 26.262800 43.175300 7.8382730 6.8950700 16.390180
172 35.952600 37.677200 55.822100 14.297010 13.268030 29.261650
173 57.741300 64.144500 72.527900 37.435820 39.803030 56.393310
174 31.248900 0.0000000 100.00000 19.820930 8.4112840 92.343580
175 31.675600 22.163500 100.00000 20.708670 10.304140 92.498680
176 51.254000 52.579100 100.00000 28.977240 20.784550 95.808270
177 50.299100 64.135600 100.00000 32.615750 27.843680 99.364900
178 69.525300 66.653200 100.00000 40.579310 33.194750 101.23470
179 0.0000000 100.00000 55.803800 39.234400 74.835350 29.675160
180 29.211300 100.00000 67.337100 43.151690 76.772850 39.795380
181 100.00000 85.676300 52.733400 66.810140 64.899030 22.909960
182 100.00000 87.149600 70.875100 71.618860 69.805950 39.053170
183 49.855300 64.538100 38.923800 27.324020 36.643200 18.737080
184 64.067500 73.001000 49.996400 43.053400 52.732570 30.493320
185 36.504500 53.450300 32.529700 16.400650 22.940350 12.935960
186 58.976300 53.766600 31.844900 26.035020 27.870650 12.521830
187 100.00000 72.540700 46.235300 55.449400 45.324090 15.755910
188 0.0000000 0.0000000 0.0000000 0.0869363 0.0861095 0.1490820
189 20.337300 0.0000000 32.859400 3.2773160 1.5583260 9.0182480
190 65.962600 28.547200 67.642800 29.353710 17.992470 45.297430
191 100.00000 100.00000 100.00000 92.768930 97.280510 105.67090
192 0.0000000 19.662900 0.0000000 1.2610020 2.4883650 0.5650100
193 0.0000000 28.913400 16.877200 2.9877620 5.2284250 3.5641110
194 0.0000000 64.855100 42.767700 17.339230 30.535300 20.581200
195 24.775900 100.00000 87.642100 46.687480 75.088640 70.721120
196 47.895400 100.00000 100.00000 56.490220 78.731620 105.07850
197 100.00000 27.648700 23.969000 43.711610 24.688090 4.5105660
198 100.00000 46.049800 78.752000 54.106700 33.125380 40.641360
199 0.0000000 0.0000000 2.3364000 0.1052470 0.0952725 0.2355350
200 0.0000000 16.802600 37.226200 3.1492660 2.8402630 11.711640
201 0.0000000 36.034600 51.590900 8.4054610 9.8429070 24.723530
202 33.076500 47.184500 53.271700 15.809410 18.231940 27.685240
203 65.528700 54.287900 70.964800 37.457420 32.912360 53.721130
204 35.201000 0.0000000 32.409400 6.3734410 3.1607360 9.1560580
205 71.833400 0.0000000 50.204900 27.168930 13.660820 22.537960
206 72.234800 0.0000000 64.080200 30.657610 15.127180 39.230020
207 74.727700 0.0000000 80.379000 38.765450 18.741630 69.056470
208 100.00000 0.0000000 34.708500 43.103380 22.192980 6.9074040
209 100.00000 43.063900 38.401900 46.650180 29.092560 9.3427690
210 100.00000 51.744700 55.175600 51.005360 33.550850 19.164940
211 50.654900 19.586400 0.0000000 11.622770 7.9585540 0.8660040
212 60.651600 38.645600 0.0000000 20.408320 17.584800 2.1784860
213 78.002700 46.558300 0.0000000 35.349410 28.764690 3.3118650
214 80.551900 81.570900 0.0000000 55.738640 68.200530 10.087670
215 100.00000 100.00000 0.0000000 77.414000 92.878790 13.338220
216 100.00000 100.00000 29.385200 78.032200 92.923800 17.810150
217 100.00000 100.00000 51.062600 80.996760 95.120430 27.154390
218 100.00000 100.00000 69.094300 85.277860 98.034350 42.151110
219 0.0000000 7.4257000 0.0000000 0.3229190 0.5667260 0.2379620
220 0.0000000 10.204100 0.0000000 0.4549430 0.8401980 0.2806610
221 0.0000000 14.014600 13.568800 1.1075440 1.6164870 2.1737860
222 41.972300 20.445600 33.754100 9.9286560 6.9402100 10.229190
223 0.0000000 0.0000000 0.0000000 0.0885493 0.0876749 0.1517280
224 0.0000000 0.0000000 100.00000 18.217200 7.5411000 94.712660
225 0.0000000 22.802800 100.00000 19.161930 9.5508870 95.157810
226 0.0000000 100.00000 100.00000 53.510410 79.191690 109.21660
227 75.678200 0.0000000 16.852100 26.898940 14.014120 3.5608810
228 78.149500 0.0000000 40.788600 31.804870 16.192600 15.293750
229 100.00000 27.733300 66.738300 48.624090 26.716550 26.436260
230 100.00000 66.929800 67.321200 56.481650 42.751670 30.272230
231 100.00000 73.791800 83.068000 63.915620 50.126700 52.566200
232 100.00000 86.935400 100.00000 84.144560 74.739150 106.54370
233 13.167900 15.452600 0.0000000 1.6465680 2.1592010 0.4677620
234 0.0000000 13.157900 0.0000000 0.7073560 1.3602470 0.3708710
235 0.0000000 16.304300 0.0000000 0.9513940 1.8574600 0.4580650
236 0.0000000 27.071100 26.256700 3.3632990 4.9941180 6.6634560
237 24.308300 61.670400 100.00000 26.950850 23.490150 97.614790
238 41.465100 72.122400 100.00000 32.806050 31.855170 98.304470
239 45.125700 83.602100 100.00000 40.517320 45.909090 102.04240
240 0.0000000 89.622600 0.0000000 30.268300 61.816020 10.972180
241 0.0000000 100.00000 0.0000000 36.301740 74.166500 12.933590
242 0.0000000 100.00000 31.876600 37.654480 75.261860 18.399630
243 100.00000 100.00000 100.00000 101.18230 106.23340 115.32930
244 92.948700 92.948700 92.948700 88.450560 93.093060 101.03660
245 96.405200 96.405200 96.405200 89.513700 93.996100 101.88720
246 53.359300 0.0000000 71.567000 21.959580 10.427730 52.541540
247 60.145400 23.991800 100.00000 29.645940 15.017630 101.47700
248 83.302300 78.455100 100.00000 55.638900 48.720380 106.32990
249 45.774700 0.0000000 0.0000000 8.6084890 4.4985980 0.3831070
250 71.539900 25.897300 0.0000000 25.395110 16.260570 1.4715580
251 77.766300 25.361400 28.264800 31.550040 19.286330 8.2971100
252 54.542500 27.160800 22.177600 15.071200 11.096040 5.4150530
253 64.224700 37.891600 23.868500 23.065030 18.572080 6.9451080
254 76.916900 39.954000 48.804900 36.378240 25.909270 23.431130
255 100.00000 0.0000000 49.588600 44.384460 22.720470 13.239230
256 100.00000 0.0000000 63.670100 46.016690 23.444200 22.766480
257 100.00000 28.267400 83.201800 52.925500 28.663700 48.233490
258 0.0000000 2.3364000 0.0000000 0.1173790 0.1487700 0.1615780
259 0.0000000 4.8077000 0.0000000 0.1918590 0.3004180 0.1864330
260 0.0000000 11.079500 21.272200 1.1931240 1.2139650 3.9336460
261 0.0000000 20.836400 72.756600 11.267050 6.8172610 52.111640
262 0.0000000 52.801100 100.00000 22.897940 17.751210 94.894140
263 84.278200 62.542200 100.00000 47.342190 34.224080 96.192370
264 100.00000 71.797800 100.00000 70.446320 51.012760 98.353720
265 12.848500 0.0000000 14.594000 1.0933070 0.5690110 2.1039760
266 24.150900 0.0000000 16.370800 2.6534910 1.3633250 2.6414590
267 25.889400 38.961600 18.747100 7.5405510 10.747290 4.8368620
268 58.288700 47.510800 44.003100 24.133500 22.759370 19.360390
269 100.00000 0.0000000 0.0000000 41.034960 21.223340 1.2032130
270 100.00000 0.0000000 18.971200 41.753010 21.667450 3.0333880
271 100.00000 63.662800 26.051900 51.449430 38.830300 7.4229980
272 100.00000 100.00000 85.646600 89.700010 99.203330 69.064620
273 29.235500 36.760000 100.00000 23.357230 13.881400 99.486040
274 55.307000 39.377900 100.00000 29.220090 17.441100 99.801480
275 69.370600 51.624000 100.00000 36.567040 24.647300 100.56970
276 45.269500 33.016100 65.222500 19.025920 14.249210 42.401340
277 63.931300 74.165500 69.987200 48.735360 56.353770 57.621730
278 0.0000000 14.440300 48.736200 4.8072590 3.2306700 21.214940
279 0.0000000 30.031100 56.664800 8.2728970 7.8250700 29.876120
280 0.0000000 34.554600 74.748700 14.344810 11.811570 57.019730
281 0.0000000 49.054200 74.902500 17.754040 19.052490 57.256980
282 0.0000000 72.121200 76.557500 29.192040 41.701670 63.560960
283 0.0000000 82.677600 100.00000 33.484620 39.903140 96.946400
284 35.676700 53.199400 52.530400 17.848940 22.175100 26.707980
285 85.560400 62.077400 58.129400 47.657120 39.971960 28.826680
286 60.404500 84.467400 0.0000000 39.655440 61.199250 9.9454360
287 73.610800 100.00000 0.0000000 49.015250 78.090310 12.607300
288 61.832700 100.00000 19.572700 44.035630 74.935270 14.441660
289 26.002400 68.824600 47.751400 22.906620 36.823090 26.022890
290 39.324100 70.746000 69.258100 33.284020 43.908680 54.406130
291 0.0000000 62.377300 56.505600 18.934730 29.520650 33.664330
292 0.0000000 81.907800 72.975700 34.874410 55.886770 57.842920
293 63.710900 100.00000 73.015500 49.338420 76.353470 42.312520
294 37.221000 0.0000000 16.861400 5.6136560 2.8917200 2.7982280
295 41.886000 11.258100 15.506600 7.4081480 4.5352020 2.6625380
296 72.980600 22.683000 38.953800 27.010650 16.084840 13.288990
297 100.00000 27.684600 40.408200 43.148530 24.082100 9.1016110
298 51.951000 0.0000000 15.611400 10.564480 5.4574020 2.5712760
299 54.002300 0.0000000 32.511100 12.879930 6.5262090 8.9437950
300 67.353100 14.608400 69.207800 28.206740 14.796390 45.499930
301 66.245600 100.00000 88.543700 55.153720 77.795330 71.789940
302 77.077600 100.00000 100.00000 65.288540 81.754480 102.23200
303 15.988600 8.8594000 0.0000000 1.3371230 1.1848050 0.2735100
304 29.749300 12.900000 0.0000000 3.7842100 2.8580740 0.4265490
305 26.502900 21.668200 0.0000000 3.9086190 4.1052060 0.6818970
306 37.860500 37.509500 0.0000000 9.2947390 11.020060 1.7113580
307 56.203900 48.617200 0.0000000 19.391940 20.836580 2.9604200
308 100.00000 69.167600 0.0000000 49.738460 39.909030 4.4534030
309 100.00000 83.160400 0.0000000 56.832590 54.135110 6.9876810
310 40.837800 28.875600 34.343500 10.552090 8.9910760 10.912790
311 55.559400 31.112500 46.318400 18.817730 13.658480 19.545440
312 75.700100 35.544800 68.438000 37.579500 24.260500 46.203100
313 83.118000 53.976800 79.531600 50.715750 37.746400 61.926860
314 53.746800 0.0000000 100.00000 23.989050 10.571580 91.850760
315 61.941100 12.198100 85.268400 27.519520 13.616440 73.710540
316 68.954000 28.071000 87.691600 33.092780 18.441120 80.440060
317 41.075000 7.8534000 27.175700 7.8919810 4.3621160 6.4056730
318 58.008000 10.576400 27.789200 15.273620 8.4297500 6.8596600
319 59.451300 22.199100 52.349900 20.249240 12.313140 23.946220
320 60.407000 39.462000 86.774300 29.704560 19.490910 76.458090
321 80.087800 41.007200 100.00000 37.460300 21.978330 92.702900
322 13.216700 48.251000 64.298200 14.648210 17.169010 39.644040
323 11.414300 64.716200 74.077900 24.640810 33.095600 58.010980
324 18.124800 80.530800 85.637300 35.088080 47.271890 80.533270
325 19.146000 86.595100 82.574900 40.586100 62.126380 71.114150
326 58.598300 91.077700 91.848200 55.980500 72.794440 93.505040
327 53.947100 15.893400 10.918000 12.620360 7.8142380 1.8916780
328 86.244800 28.772500 8.4461000 35.417190 21.420090 2.3617160
329 87.356300 37.817900 43.363000 41.426520 26.326310 15.013620
330 63.320300 13.927400 19.869000 18.152870 10.431000 4.2353170
331 81.001100 35.451300 24.224300 34.975130 23.326040 6.7942200
332 85.617800 46.555100 37.879600 41.011810 29.481110 12.616340
333 86.852400 84.137900 57.132000 64.796930 71.518610 34.091930
334 64.966600 77.383400 37.663400 42.451340 55.326810 20.163280
335 79.053100 87.427200 51.368500 56.364530 73.466030 29.388160
336 75.541600 60.780600 0.0000000 38.845220 39.162200 5.2856430
337 80.920600 72.110100 10.052100 48.939930 53.185950 8.3559630
338 89.448900 83.368900 39.444000 59.990700 64.653690 18.772760
339 39.750500 48.011200 21.565600 13.358810 17.684740 6.5717650
340 50.902300 48.222100 40.744500 19.858060 20.869930 16.789440
341 81.217100 49.597700 62.148700 44.457880 33.414130 37.620490
342 0.0000000 0.0000000 0.0000000 0.0869224 0.0860135 0.1487150
343 14.750000 1.1212000 8.9833000 1.1006850 0.6023980 1.0005860
344 15.332700 7.8663000 14.324000 1.6096570 1.1943670 2.2199850
345 20.520200 7.7851000 9.7732000 2.0232750 1.4296330 1.2464140
346 27.853100 7.9597000 16.323100 3.5876980 2.2007650 2.7583710
347 27.768300 7.6315000 26.408900 4.1921200 2.4417140 5.9482640
348 88.606500 13.266500 27.310400 36.907000 19.761420 5.9410500
349 100.00000 100.00000 100.00000 95.879720 100.56030 109.10510
350 11.987900 24.791800 20.113600 3.2000330 4.4867450 4.2519150
351 11.471400 34.624300 42.398000 7.1988270 9.0798420 16.738140
352 16.931200 54.629200 46.070000 14.312290 21.810980 21.647110
353 0.0000000 45.996600 34.959200 8.5267790 14.220710 12.473690
354 32.352100 55.666300 42.856900 17.031280 23.950950 19.486460
355 46.401300 64.297500 57.918500 28.630740 36.210630 36.136790
356 84.076400 68.756400 90.088000 56.079460 46.359310 87.702940
357 40.440000 37.342900 46.190400 14.015240 13.341840 20.345660
358 50.286500 38.036400 52.201000 19.073760 16.138440 25.990030
359 58.512300 49.901400 83.270000 34.530400 27.237640 76.638500
360 57.797600 61.432500 86.925100 36.884950 33.444970 84.235380
361 12.016200 66.730000 53.324200 21.208290 34.395790 31.241040
362 20.334100 71.312200 70.603000 29.752240 42.858680 56.625130
363 24.125500 91.509900 100.00000 43.746440 57.637830 104.21990
364 15.101900 12.911500 51.438900 6.0154990 3.6062240 23.395390
365 30.247700 13.503700 62.730100 11.276690 6.1059430 37.497850
366 44.728500 14.445000 65.392800 16.620920 8.9467950 42.000410
367 57.481000 27.504100 74.397000 27.088640 16.407960 57.566790
368 27.038000 27.484500 35.443800 7.0679580 6.9421190 11.515210
369 53.400400 33.501500 35.500900 17.003360 13.820010 12.402580
370 69.071500 56.146500 48.078400 35.526910 33.873050 25.098050
371 69.289700 66.264900 58.717300 42.887730 45.035600 38.197490
372 72.606400 85.227900 85.369900 61.938530 72.185330 87.476830
373 14.315400 32.393600 85.910600 18.572190 12.203370 80.062720
374 38.811400 50.336300 86.366100 27.069410 22.539880 83.524500
375 26.416800 36.955200 77.269100 18.921170 15.187700 64.048030
376 43.826100 39.718200 84.611300 25.824510 18.322020 79.608940
377 0.0000000 41.339700 43.883500 8.6133210 12.256610 18.916660
378 18.006000 46.332500 53.157400 12.974540 16.609250 27.854660
379 27.061500 84.070400 60.515600 35.303290 58.982670 39.785030
380 47.623100 88.326200 66.040500 43.800660 68.517500 44.218030
381 74.096500 88.572100 65.466400 57.389140 76.621490 44.357130
382 75.202900 88.590900 78.544900 62.152110 79.105110 62.927320
383 41.854300 27.312000 0.0000000 9.2762500 8.3441530 1.1457780
384 44.595700 36.403400 9.7358000 12.057020 12.410700 2.7603320
385 26.656100 59.846300 0.0000000 14.819960 26.294350 4.5332950
386 31.249200 71.815500 17.918600 23.193290 40.726800 9.8265020
387 40.265000 84.930400 51.531000 36.854400 61.024710 29.785620
388 63.507500 86.395600 71.941400 51.706620 70.272210 53.486380
389 18.444200 2.5951000 45.565000 4.8783300 2.2645810 18.188330
390 50.989000 0.0000000 48.983500 14.324400 7.0265460 21.376230
391 51.820500 9.2619000 58.461000 17.084370 8.7657340 31.669510
392 84.821700 33.629500 79.443700 47.237230 27.829570 58.372030
393 88.231400 66.293400 80.772600 59.069580 47.588750 59.800110
394 35.666000 27.924800 14.200800 7.5590990 7.4073260 2.9440110
395 54.784700 35.856000 13.656100 16.509880 14.460200 3.6650270
396 65.662100 78.810800 100.00000 42.787580 41.232260 100.47920
397 5.0385000 53.652300 54.478100 14.467680 20.959060 29.746660
398 25.908200 58.722000 57.548200 20.015430 27.494710 34.631740
399 32.922000 68.823200 57.614400 26.785770 39.011960 36.534090
400 44.153300 77.970900 82.471400 42.761840 53.752890 80.381860
401 69.880000 0.0000000 26.532500 22.676070 11.645170 6.6430020
402 85.031200 15.373000 37.668000 36.621350 19.883850 11.030020
403 93.659200 15.994800 48.580400 42.487110 22.712560 16.733860
404 100.00000 30.573900 55.282400 49.454930 27.851170 18.570540
405 100.00000 74.279100 62.955600 61.280940 50.034280 28.350960
406 32.360800 35.659100 12.460500 8.6236390 10.657580 3.2917930
407 33.766700 54.037500 15.258300 14.924570 22.826400 6.0536440
408 46.753700 85.165100 18.907400 35.953940 61.489060 13.013900
409 63.645300 87.146500 28.053300 45.200230 68.855120 16.674410
410 81.982700 100.00000 27.660600 57.862270 85.514390 17.555760
411 10.943200 38.278100 17.483200 5.7734730 10.046530 4.5740530
412 39.838300 38.993800 28.355700 12.354320 13.516370 8.8352580
413 51.658300 40.772300 44.272600 19.347730 17.577320 19.206850
414 69.363300 16.433300 12.632700 22.370580 12.919220 2.4906320
415 86.743400 15.536600 12.958600 35.214470 19.333610 2.5983470
416 87.466300 52.615100 31.451600 44.957900 33.899500 10.427580
417 100.00000 60.209000 46.365200 53.959640 39.066910 15.065340
418 50.899900 21.795500 31.256900 13.710580 9.2792410 9.5613910
419 62.278700 25.761300 31.304100 20.949530 13.850160 9.9696920
420 29.055500 10.247500 8.7876000 3.7349850 2.5280430 1.1518490
421 37.959200 18.090300 23.394600 7.4041930 5.3752950 5.1716230
422 48.128500 66.886800 22.365200 25.581240 37.227800 10.132760
423 49.969400 76.007700 38.505700 33.376230 49.569970 20.147350
424 86.650600 76.410300 60.434200 56.689800 55.084760 33.849670
425 77.424300 66.095700 54.232900 47.668620 47.162600 32.265820
426 87.127200 73.125000 68.326800 56.719850 51.757450 41.962970
427 88.702000 75.400000 79.106100 62.314020 55.843760 56.907220
428 100.00000 85.850700 83.149300 72.866490 67.644310 56.086370
429 9.8071000 18.308000 22.031900 2.3726510 2.8317410 4.5693410
430 14.118600 22.458000 31.677800 4.0589940 4.3076560 9.2010770
431 26.170900 41.607400 60.076400 14.302430 14.901020 35.397820
432 48.556300 46.622700 69.924300 24.974870 22.339640 50.077400
433 51.121300 74.004600 88.374100 38.377620 41.753150 85.395260
434 8.5653000 19.851100 61.773800 8.4598330 5.6065250 35.971090
435 21.933800 22.773200 79.022200 15.839140 9.3457760 65.543810
436 45.256000 22.695200 77.688000 21.257040 12.210980 62.117920
437 32.211200 26.753600 68.886900 14.902890 10.080770 47.211180
438 39.363700 29.353700 89.488500 21.736630 12.538320 81.653180
439 13.852900 26.172200 48.862800 6.8406420 6.3389950 21.549330
440 16.497500 29.881900 62.298200 10.662810 8.8188800 37.139820
441 15.220300 41.384300 68.194800 14.902970 14.966440 46.870260
442 25.772100 56.618000 77.446800 24.360420 27.311760 64.206070
443 32.472600 64.871800 79.442700 31.221310 37.043440 71.432790
444 51.655900 65.688100 85.293100 35.861950 36.297420 79.993910
445 67.934400 42.275600 77.668300 37.484730 26.740610 64.019610
446 83.506100 45.897700 88.812900 47.865860 30.838360 82.688170
447 37.045100 11.757000 41.409300 8.3364430 4.7997950 14.923540
448 46.187500 23.134900 45.100400 13.277340 9.0478600 18.214210
449 64.029000 35.913200 45.035500 24.626300 18.406980 19.299690
450 87.010100 37.740800 56.887100 42.118160 26.454910 25.101450
451 47.731100 54.162400 14.844700 18.688650 24.056570 5.8228380
452 61.244400 60.391700 15.104400 28.233440 33.240760 7.0395050
453 84.143200 75.871300 87.009500 62.011620 56.034330 84.694220
454 27.086500 17.623300 15.858200 4.1599540 3.6507220 2.8319050
455 29.293700 18.617800 24.844300 5.3103530 4.3149200 5.6203790
456 32.886500 21.390800 35.682300 7.5248560 5.8643340 11.331750
457 21.714200 11.892900 23.194300 3.0649210 2.2719920 4.7485030
458 47.970100 41.449300 23.981000 15.139610 15.917250 7.0141660
459 67.292200 42.883900 40.050100 27.834530 22.760320 16.292660
460 73.735500 60.501100 39.471800 39.602040 38.985290 18.559860
461 73.005600 71.576700 38.588300 45.107400 51.690470 19.673520
462 87.339700 73.066500 48.028000 52.726340 49.678630 21.781670
463 51.094000 55.833600 36.180300 22.296350 26.695740 14.864310
464 60.219400 58.159700 45.922100 29.929570 32.243070 22.589610
465 69.725900 74.552900 62.092300 48.796680 55.742590 43.859120
466 84.081700 83.713900 74.660400 67.735810 73.693960 58.258250
467 14.551500 28.486300 12.511900 3.5732680 5.5148720 2.5146670
468 14.489100 29.043500 31.108100 4.9105030 6.1781270 9.1526050
469 15.159400 29.833000 44.025700 6.7733350 7.2145550 17.625110
470 2.3364000 0.0000000 0.0000000 0.1244620 0.1064400 0.1518970
471 9.9228000 8.5965000 33.792900 2.5953900 1.6390990 9.6005550
472 22.039000 72.534700 37.370600 23.006440 40.718610 18.364350
473 29.293100 74.341100 86.003000 34.201060 41.756100 82.960050
474 39.333700 53.204800 67.202000 23.737300 25.606070 47.452290
475 57.490400 57.171000 73.213000 35.009170 33.681940 57.811690
476 69.576400 68.466200 85.731200 45.807820 43.212430 82.201860
477 16.566400 18.039000 40.174500 4.7431930 3.8193180 13.958880
478 27.640900 23.647800 53.514500 9.3184760 6.9088650 25.854270
479 33.855600 38.982800 66.605400 17.250500 15.155240 45.074510
480 37.881000 54.333000 78.723000 27.512350 27.709950 68.045990
481 0.0000000 23.813500 34.247100 3.6437110 4.3948220 10.288710
482 40.089600 29.281700 50.925600 13.018600 10.204760 23.862390
483 69.775600 33.044100 54.636100 29.923450 20.009040 28.352920
484 14.846700 14.493300 6.9842000 1.7797280 2.0541070 0.9667460
485 25.834600 18.367400 7.9324000 3.6916420 3.5683320 1.2384790
486 43.488500 25.565000 10.819700 9.5376950 7.9913090 2.2139670
487 69.693300 33.809900 29.676200 26.417710 18.894440 9.4767930
488 70.292000 65.288900 73.949400 47.186950 45.947440 61.112300
489 16.483700 48.708200 31.813800 10.103540 16.319030 11.288630
490 16.169300 60.190300 33.928000 15.099360 26.213580 14.143230
491 13.782300 59.706700 88.384600 24.947500 25.129730 83.426100
492 21.138500 76.084300 100.00000 31.678730 33.656240 99.618850
493 64.166200 90.471600 100.00000 52.457360 61.622790 104.45160
494 84.231200 91.664100 100.00000 66.055450 69.750650 106.08670
495 8.3763000 13.061000 28.739100 2.3519630 2.0439810 7.3003080
496 19.550300 18.223400 29.876700 4.0321880 3.5930530 8.1461000
497 87.022300 40.059200 67.430000 45.625820 28.757610 37.606970
498 0.8604000 8.2905000 12.344300 0.6284620 0.7396530 1.6822780
499 10.805200 10.084000 20.119100 1.6251250 1.3732200 3.6834490
500 25.506900 11.804600 39.117200 5.4288080 3.3291160 13.282110
501 37.825800 13.912100 52.408300 10.731490 6.1184270 24.764210
502 50.705200 22.882200 56.309200 17.343740 10.856030 30.099470
503 64.666800 87.462800 55.312500 47.192340 68.040010 32.565170
504 34.343700 86.975800 35.338000 34.695090 62.605180 19.159790
505 57.757700 91.882400 45.699500 44.976100 71.448000 25.544050
506 18.767100 28.374300 0.0000000 3.8754510 5.7027570 1.0399990
507 23.871300 33.596400 27.916500 6.9051510 8.7901820 7.9236460
508 27.822700 37.875700 48.599900 11.216010 12.054190 22.410350
509 27.010000 58.616100 65.899200 22.159750 28.116370 46.003160
510 45.446600 64.094300 70.343200 31.616140 36.942370 54.098590
511 41.797900 50.671200 46.093100 18.472890 21.395580 21.824530
512 49.834800 57.192700 46.111700 24.366290 28.821950 22.950480
513 57.313800 68.816100 58.026000 36.421080 43.949950 37.186500
514 57.115600 79.445100 58.907500 43.351850 58.061390 40.664970
515 44.334400 72.332500 0.0000000 26.578150 42.565710 7.0446910
516 61.221400 73.969500 13.635900 36.173170 49.524650 9.5369170
517 73.226500 75.066800 24.280800 46.338210 55.704610 13.121850
518 92.704500 85.757500 24.238700 62.125280 69.320480 13.338430
519 0.0000000 0.0000000 0.0000000 0.0884261 0.0874721 0.1514820
520 69.377400 59.825800 24.343800 34.283060 36.152710 9.9395560
521 85.513600 61.435100 31.986400 45.849580 39.676550 12.008910
522 88.960200 63.288200 50.582100 50.797980 41.941910 21.896670
523 58.237100 38.569700 63.573400 26.389800 20.019620 41.021210
524 70.629000 46.464100 65.216100 37.263150 28.857510 44.153560
525 72.123200 56.420800 83.572000 44.705810 36.134440 77.885480
526 12.785400 85.131100 46.059400 31.683080 58.790560 25.735240
527 26.595600 84.465700 71.340700 38.966050 61.909740 55.048820
528 44.717400 87.516900 81.510700 48.038930 69.777630 70.935540
529 15.213000 61.837500 19.183900 14.927780 28.132420 8.2484810
530 14.228300 83.644700 22.641100 28.640710 56.176020 13.679380
531 28.500300 100.00000 21.578400 37.622160 73.350230 14.800490
532 30.492500 100.00000 49.157400 39.406610 73.548410 24.933000
533 15.165200 10.136100 65.063800 9.2410910 4.5766600 41.163980
534 18.082400 13.245400 84.855000 16.350890 7.8223000 76.622470
535 41.724900 11.880800 85.437200 21.224110 10.082460 79.107950
536 85.832900 18.565000 84.952200 50.676610 26.172510 77.217230
537 56.116700 100.00000 58.630500 47.721830 79.517940 32.292680
538 80.679700 100.00000 64.081700 60.133330 85.954080 37.092970
539 19.164700 43.936600 11.500400 8.0893760 13.808030 3.8120800
540 13.284600 37.483400 27.817200 6.5172900 10.010530 8.4286700
541 28.709300 44.754300 38.655700 12.066840 15.700810 15.157020
542 48.752200 46.449000 59.796300 22.314420 21.294460 35.794570
543 58.921300 52.589800 60.358300 29.710960 28.041540 37.205780
544 70.317200 59.687700 60.316700 40.109310 38.160400 38.599370
545 74.201800 58.188900 68.573400 44.991070 39.562550 50.337600
546 86.871500 62.258400 68.578600 51.891280 41.985410 40.565900
547 70.910300 50.471300 53.124100 34.876260 29.530440 28.230780
548 85.470100 52.585400 52.585100 44.690070 33.594800 23.509650
549 82.683300 13.896600 51.060700 37.023130 19.715470 22.136600
550 85.803700 11.232900 69.607800 42.217050 21.733910 39.924420
551 52.815900 10.837600 40.179400 14.365590 7.8579350 14.291610
552 65.185000 17.037800 42.461100 21.836140 12.479870 16.311180
553 68.952600 14.518800 55.947200 26.981320 14.548560 29.423130
554 83.822300 20.019100 61.431900 39.301560 21.466440 31.717690
555 83.396000 20.657600 100.00000 40.351850 20.219240 95.824260
556 15.140800 4.9070000 24.975400 2.0912690 1.1839950 5.3193270
557 33.510900 43.151800 31.174300 11.424910 14.456890 10.356790
558 57.783900 64.157700 31.731900 29.485270 36.793380 13.984190
559 71.902200 69.888600 50.357600 44.430200 49.007440 28.666170
560 9.2594000 19.263300 9.8747000 1.8236230 2.7408750 1.5227440
561 21.297900 25.275700 9.1586000 3.7161220 4.7991980 1.6921490
562 26.330100 28.223900 19.562400 5.5245840 6.3755720 4.2778890
563 28.473000 37.266900 40.564700 9.8371300 11.205090 15.399810
564 45.181900 51.293500 58.819400 21.926730 23.121980 34.449410
565 51.845200 61.562900 61.785700 29.985550 34.256910 40.250040
566 39.610400 15.780800 7.5557000 6.8917870 4.8369270 1.1980310
567 40.805800 23.134400 19.017000 8.5504960 6.8736510 3.9262770
568 48.993100 34.870200 27.467300 14.110560 12.766460 7.8432310
569 63.005200 26.428400 9.6104000 19.000450 13.012840 2.2776260
570 62.485000 48.070800 13.238100 23.825620 23.199950 4.7991800
571 78.475000 55.700300 11.541500 38.481530 35.023570 5.7112470
572 78.581900 88.993300 13.361800 50.487740 70.443590 12.258720
573 82.103000 90.415900 38.995800 57.318310 75.882820 20.973380
574 50.923200 47.655200 14.744200 17.347920 19.976930 5.0728250
575 67.310600 48.705100 26.001100 27.759520 25.402840 8.6723210
576 75.011000 51.016800 38.209300 35.495570 30.315920 15.314390
577 84.438600 86.648500 67.802400 64.988130 75.395600 46.168380
578 26.339800 54.578500 24.118000 12.854830 20.856460 8.3973040
579 43.050600 67.663300 48.661400 26.981670 38.002700 26.423940
580 48.777000 78.087100 68.008700 39.943880 53.913000 52.377440
581 57.724700 78.715400 77.019000 48.065950 58.942400 67.705960
582 61.675800 74.828000 81.605000 48.297090 53.737410 76.949420
583 72.315200 78.335300 89.168800 50.050880 50.560270 87.029420
584 79.466100 38.769600 13.659600 33.959340 24.552970 4.3098240
585 88.928800 51.076300 15.971500 41.275530 30.261590 4.9101040
586 69.239200 41.381500 13.581300 25.876010 21.423270 4.3190000
587 94.120900 68.994600 20.113300 48.702270 43.063650 7.6751900
588 100.00000 80.400200 29.227200 57.354800 51.660370 10.613600
END_DATA
CAL    

DESCRIPTOR "Argyll Device Calibration State"
ORIGINATOR "Argyll dispread"
CREATED "Mon Sep 28 21:39:48 2020"
DEVICE_CLASS "DISPLAY"
COLOR_REP "RGB"

BEGIN_ARGYLL_DISPCAL_ARGS
-v2 -ql -m -w0.3127,0.329 -gs -f1.0 -k0 -A4.0 -d1 -c1 -yn -P0.499546690843,0.498098859316,1.24732824427 -Iw
END_ARGYLL_DISPCAL_ARGS


NUMBER_OF_FIELDS 4
BEGIN_DATA_FORMAT
RGB_I RGB_R RGB_G RGB_B
END_DATA_FORMAT

NUMBER_OF_SETS 256
BEGIN_DATA
0.00000000 0.00000000 0.00000000 0.00000000
0.00392157 0.00397301 0.00412269 0.00417864
0.00784314 0.00770815 0.00797940 0.00807775
0.01176470 0.01122620 0.01159510 0.01172450
0.01568630 0.01454550 0.01499160 0.01514250
0.01960780 0.01768240 0.01818840 0.01835280
0.02352940 0.02065160 0.02120250 0.02137360
0.02745100 0.02347120 0.02405720 0.02423280
0.03137250 0.02616400 0.02677480 0.02696120
0.03529410 0.02874260 0.02936400 0.02956780
0.03921570 0.03122130 0.03184330 0.03206420
0.04313730 0.03361050 0.03422410 0.03445950
0.04705880 0.03593800 0.03652410 0.03677650
0.05098040 0.03820380 0.03876570 0.03903990
0.05490200 0.04042860 0.04096010 0.04125330
0.05882350 0.04260370 0.04310440 0.04341830
0.06274510 0.04472810 0.04521380 0.04554840
0.06666670 0.04680950 0.04729040 0.04764240
0.07058820 0.04885550 0.04932970 0.04968890
0.07450980 0.05086160 0.05134550 0.05170310
0.07843140 0.05286340 0.05336610 0.05371290
0.08235290 0.05485800 0.05535790 0.05568810
0.08627450 0.05682200 0.05732800 0.05763740
0.09019610 0.05875700 0.05927560 0.05955920
0.09411760 0.06066500 0.06122360 0.06148430
0.09803920 0.06257230 0.06317590 0.06341930
0.10196100 0.06448420 0.06514080 0.06536860
0.10588200 0.06640000 0.06709680 0.06731250
0.10980400 0.06830260 0.06903430 0.06924020
0.11372500 0.07018270 0.07096590 0.07116130
0.11764700 0.07205290 0.07289030 0.07308070
0.12156900 0.07391760 0.07480450 0.07499280
0.12549000 0.07577200 0.07669340 0.07688430
0.12941200 0.07760460 0.07854860 0.07874620
0.13333300 0.07941130 0.08038780 0.08060010
0.13725500 0.08121200 0.08224280 0.08247830
0.14117600 0.08303780 0.08411520 0.08437740
0.14509800 0.08488730 0.08600980 0.08629810
0.14902000 0.08676350 0.08793250 0.08824990
0.15294100 0.08868190 0.08985690 0.09020220
0.15686300 0.09061720 0.09176660 0.09213520
0.16078400 0.09254880 0.09364530 0.09403200
0.16470600 0.09446640 0.09549850 0.09589460
0.16862700 0.09636970 0.09732720 0.09772990
0.17254900 0.09825880 0.09913130 0.09953520
0.17647100 0.10013000 0.10092900 0.10133300
0.18039200 0.10200500 0.10271400 0.10311900
0.18431400 0.10387200 0.10446300 0.10487500
0.18823500 0.10571000 0.10615800 0.10658100
0.19215700 0.10749900 0.10780800 0.10823800
0.19607800 0.10924400 0.10945400 0.10988500
0.20000000 0.11099200 0.11114600 0.11157900
0.20392200 0.11280100 0.11289200 0.11333100
0.20784300 0.11468000 0.11468200 0.11513000
0.21176500 0.11660600 0.11651000 0.11696200
0.21568600 0.11856400 0.11836400 0.11882200
0.21960800 0.12054700 0.12021800 0.12069100
0.22352900 0.12253000 0.12206900 0.12255900
0.22745100 0.12451600 0.12392500 0.12444200
0.23137300 0.12650600 0.12579400 0.12634300
0.23529400 0.12849700 0.12766100 0.12825000
0.23921600 0.13047600 0.12952200 0.13015500
0.24313700 0.13243700 0.13137800 0.13205800
0.24705900 0.13437200 0.13323300 0.13396100
0.25098000 0.13628900 0.13509000 0.13587100
0.25490200 0.13818900 0.13694200 0.13778100
0.25882400 0.14006700 0.13879100 0.13969000
0.26274500 0.14193900 0.14064300 0.14160100
0.26666700 0.14381000 0.14250800 0.14351500
0.27058800 0.14569900 0.14439600 0.14544500
0.27451000 0.14759600 0.14627400 0.14735800
0.27843100 0.14946700 0.14811900 0.14923000
0.28235300 0.15130700 0.14993700 0.15106100
0.28627500 0.15313100 0.15176600 0.15288800
0.29019600 0.15498200 0.15363500 0.15474200
0.29411800 0.15687800 0.15554800 0.15663200
0.29803900 0.15881300 0.15748000 0.15853600
0.30196100 0.16076400 0.15941600 0.16043700
0.30588200 0.16272500 0.16135900 0.16233800
0.30980400 0.16469000 0.16330400 0.16424300
0.31372500 0.16665800 0.16524700 0.16614900
0.31764700 0.16863900 0.16718800 0.16805700
0.32156900 0.17063300 0.16913000 0.16996700
0.32549000 0.17264600 0.17108100 0.17188600
0.32941200 0.17465500 0.17301800 0.17379300
0.33333300 0.17663100 0.17491500 0.17566700
0.33725500 0.17854400 0.17673900 0.17747300
0.34117600 0.18038800 0.17849500 0.17921200
0.34509800 0.18219800 0.18020500 0.18091500
0.34902000 0.18399100 0.18188800 0.18259800
0.35294100 0.18579400 0.18356700 0.18428500
0.35686300 0.18762000 0.18524900 0.18598900
0.36078400 0.18947700 0.18694800 0.18771700
0.36470600 0.19138000 0.18869000 0.18949400
0.36862700 0.19334300 0.19048400 0.19133800
0.37254900 0.19535800 0.19233800 0.19324800
0.37647100 0.19740500 0.19423400 0.19520600
0.38039200 0.19945900 0.19614800 0.19718500
0.38431400 0.20151500 0.19806300 0.19916900
0.38823500 0.20359600 0.19999200 0.20117100
0.39215700 0.20568500 0.20193100 0.20318900
0.39607800 0.20776300 0.20387400 0.20521400
0.40000000 0.20984100 0.20581900 0.20724800
0.40392200 0.21192600 0.20778700 0.20930700
0.40784300 0.21399800 0.20977100 0.21137400
0.41176500 0.21605200 0.21175100 0.21343700
0.41568600 0.21809100 0.21373000 0.21549700
0.41960800 0.22011100 0.21570800 0.21755500
0.42352900 0.22209900 0.21767800 0.21959900
0.42745100 0.22407600 0.21964300 0.22163300
0.43137300 0.22604400 0.22161300 0.22365900
0.43529400 0.22800500 0.22358600 0.22567900
0.43921600 0.22994900 0.22556000 0.22768600
0.44313700 0.23186300 0.22750800 0.22965600
0.44705900 0.23377500 0.22944500 0.23161800
0.45098000 0.23569000 0.23138400 0.23358300
0.45490200 0.23761200 0.23332200 0.23554100
0.45882400 0.23955100 0.23527100 0.23750700
0.46274500 0.24147900 0.23722600 0.23946200
0.46666700 0.24339700 0.23916200 0.24139800
0.47058800 0.24528300 0.24106500 0.24329900
0.47451000 0.24712700 0.24291100 0.24515300
0.47843100 0.24895100 0.24469500 0.24695500
0.48235300 0.25075800 0.24644400 0.24872900
0.48627500 0.25255000 0.24816900 0.25048100
0.49019600 0.25435200 0.24988300 0.25222900
0.49411800 0.25619600 0.25162200 0.25401000
0.49803900 0.25810200 0.25341100 0.25584800
0.50196100 0.26010100 0.25527700 0.25776600
0.50588200 0.26220200 0.25723100 0.25977300
0.50980400 0.26438700 0.25927500 0.26186500
0.51372500 0.26658600 0.26136300 0.26395800
0.51764700 0.26880000 0.26344900 0.26605100
0.52156900 0.27104900 0.26554100 0.26815800
0.52549000 0.27332800 0.26766900 0.27028700
0.52941200 0.27562200 0.26984000 0.27243200
0.53333300 0.27795000 0.27204000 0.27459400
0.53725500 0.28031000 0.27428400 0.27678300
0.54117600 0.28266900 0.27654900 0.27896700
0.54509800 0.28503000 0.27881000 0.28112900
0.54902000 0.28739700 0.28107500 0.28327900
0.55294100 0.28975400 0.28335500 0.28543000
0.55686300 0.29211200 0.28564000 0.28757400
0.56078400 0.29444400 0.28794300 0.28973100
0.56470600 0.29670600 0.29023700 0.29188600
0.56862700 0.29892400 0.29247500 0.29399000
0.57254900 0.30111700 0.29468700 0.29606200
0.57647100 0.30330800 0.29689100 0.29812600
0.58039200 0.30549600 0.29910800 0.30021600
0.58431400 0.30765600 0.30132800 0.30232000
0.58823500 0.30978300 0.30352800 0.30442500
0.59215700 0.31188800 0.30570800 0.30652400
0.59607800 0.31395300 0.30787900 0.30863000
0.60000000 0.31598700 0.31002000 0.31073900
0.60392200 0.31800600 0.31214600 0.31284600
0.60784300 0.32002900 0.31427300 0.31496700
0.61176500 0.32206300 0.31642000 0.31711500
0.61568600 0.32410700 0.31858900 0.31930100
0.61960800 0.32616300 0.32078000 0.32152900
0.62352900 0.32822600 0.32299300 0.32379900
0.62745100 0.33024800 0.32517700 0.32609600
0.63137300 0.33228000 0.32735200 0.32835200
0.63529400 0.33433600 0.32954400 0.33061400
0.63921600 0.33644600 0.33177000 0.33288600
0.64313700 0.33861800 0.33405100 0.33519900
0.64705900 0.34085200 0.33638600 0.33755700
0.65098000 0.34312600 0.33875400 0.33994700
0.65490200 0.34542500 0.34113700 0.34235400
0.65882400 0.34772900 0.34351700 0.34475600
0.66274500 0.35006000 0.34592100 0.34716500
0.66666700 0.35240300 0.34831500 0.34957000
0.67058800 0.35471300 0.35066200 0.35192000
0.67451000 0.35703000 0.35301600 0.35423300
0.67843100 0.35934100 0.35534400 0.35653800
0.68235300 0.36160700 0.35761000 0.35879000
0.68627500 0.36384300 0.35984800 0.36098900
0.69019600 0.36609700 0.36207900 0.36318100
0.69411800 0.36836600 0.36429500 0.36535600
0.69803900 0.37063300 0.36647400 0.36750400
0.70196100 0.37288400 0.36862400 0.36961300
0.70588200 0.37516300 0.37077100 0.37170800
0.70980400 0.37749400 0.37295300 0.37381400
0.71372500 0.37990200 0.37519200 0.37596400
0.71764700 0.38234100 0.37744100 0.37815700
0.72156900 0.38481100 0.37970100 0.38035500
0.72549000 0.38732300 0.38200200 0.38258000
0.72941200 0.38987800 0.38434600 0.38485100
0.73333300 0.39245700 0.38672100 0.38717400
0.73725500 0.39503200 0.38910300 0.38952600
0.74117600 0.39756400 0.39146200 0.39188700
0.74509800 0.40007500 0.39382400 0.39423300
0.74902000 0.40254900 0.39619000 0.39659200
0.75294100 0.40497700 0.39853400 0.39896300
0.75686300 0.40737200 0.40087600 0.40133000
0.76078400 0.40971800 0.40320700 0.40370400
0.76470600 0.41201600 0.40551400 0.40608800
0.76862700 0.41425900 0.40778400 0.40847300
0.77254900 0.41652000 0.41007800 0.41085700
0.77647100 0.41886700 0.41247200 0.41330700
0.78039200 0.42134100 0.41501900 0.41588900
0.78431400 0.42399100 0.41775600 0.41867500
0.78823500 0.42683900 0.42070400 0.42169900
0.79215700 0.42992400 0.42391100 0.42496400
0.79607800 0.43328100 0.42739900 0.42853100
0.80000000 0.43688200 0.43116000 0.43236200
0.80392200 0.44067300 0.43511500 0.43643500
0.80784300 0.44462400 0.43922200 0.44058500
0.81176500 0.44877200 0.44351400 0.44485000
0.81568600 0.45311200 0.44797400 0.44924300
0.81960800 0.45761500 0.45262500 0.45375100
0.82352900 0.46241100 0.45758200 0.45852900
0.82745100 0.46744000 0.46274700 0.46354400
0.83137300 0.47258200 0.46798100 0.46866700
0.83529400 0.47775700 0.47325100 0.47384300
0.83921600 0.48279800 0.47835200 0.47895500
0.84313700 0.48757400 0.48329000 0.48384600
0.84705900 0.49228000 0.48812400 0.48865800
0.85098000 0.49686500 0.49277600 0.49333000
0.85490200 0.50141200 0.49736600 0.49793600
0.85882400 0.50602600 0.50198700 0.50259600
0.86274500 0.51072800 0.50672100 0.50737100
0.86666700 0.51549600 0.51156800 0.51223600
0.87058800 0.52028300 0.51638700 0.51711500
0.87451000 0.52488900 0.52098200 0.52179300
0.87843100 0.52912200 0.52504000 0.52604400
0.88235300 0.53277800 0.52852700 0.52967700
0.88627500 0.53590500 0.53149700 0.53275500
0.89019600 0.53858400 0.53401900 0.53537100
0.89411800 0.54088300 0.53616600 0.53761700
0.89803900 0.54287300 0.53802500 0.53956100
0.90196100 0.54461700 0.53970000 0.54127700
0.90588200 0.54622300 0.54123000 0.54286100
0.90980400 0.54772500 0.54264700 0.54433400
0.91372500 0.54913900 0.54398500 0.54572000
0.91764700 0.55049600 0.54526500 0.54705200
0.92156900 0.55182500 0.54650700 0.54835000
0.92549000 0.55314400 0.54774900 0.54963500
0.92941200 0.55450200 0.54901600 0.55095500
0.93333300 0.55591900 0.55032800 0.55232200
0.93725500 0.55742300 0.55171400 0.55376700
0.94117600 0.55905600 0.55321200 0.55532700
0.94509800 0.56089600 0.55489700 0.55707700
0.94902000 0.56303900 0.55684300 0.55910700
0.95294100 0.56559500 0.55914600 0.56153100
0.95686300 0.56875600 0.56205100 0.56454600
0.96078400 0.57288300 0.56588100 0.56853400
0.96470600 0.57828500 0.57102300 0.57385100
0.96862700 0.58524000 0.57788900 0.58082400
0.97254900 0.59339400 0.58612200 0.58906100
0.97647100 0.60195500 0.59465700 0.59765800
0.98039200 0.61059700 0.60299200 0.60620200
0.98431400 0.61949700 0.61149000 0.61498200
0.98823500 0.62841800 0.62007100 0.62376500
0.99215700 0.63828200 0.62981600 0.63358700
0.99607800 0.64797400 0.63932800 0.64324400
1.00000000 0.65752900 0.64853900 0.65273400
END_DATA
