CTI3   

DESCRIPTOR "Argyll Calibration Target chart information 3"
ORIGINATOR "Argyll dispread"
CREATED "Mon Sep 28 22:28:22 2020"
DEVICE_CLASS "DISPLAY"
SINGLE_DIM_STEPS "21"
COMP_GREY_STEPS "61"
DARK_REGION_EMPHASIS "1.6"
COLOR_REP "RGB_XYZ"
TARGET_INSTRUMENT "X-Rite i1 DisplayPro, ColorMunki Display"
DISPLAY_TYPE_REFRESH "NO"
DISPLAY_TYPE_BASE_ID "1"
INSTRUMENT_TYPE_SPECTRAL "NO"
LUMINANCE_XYZ_CDM2 "399.136719 419.499304 457.529787"
NORMALIZED_TO_Y_100 "YES"
VIDEO_LUT_CALIBRATION_POSSIBLE "YES"

BEGIN_ARGYLL_COLPROF_ARGS
-v -qh -aX -bn -C "No copyright. Created with DisplayCAL 3.8.9.3 and ArgyllCMS 2.1.2" -M "27531" -A "AU Optronics"
END_ARGYLL_COLPROF_ARGS

OBSERVER "1931_2"
USE_BLACK_POINT_COMPENSATION "NO"
BLACK_POINT_CORRECTION "0.0"
HIRES_B2A "YES"
HIRES_B2A_SIZE "-1"
SMOOTH_B2A "YES"
PATCH_SEQUENCE "OPTIMIZE_DISPLAY_RESPONSE_DELAY"

NUMBER_OF_FIELDS 7
BEGIN_DATA_FORMAT
SAMPLE_ID RGB_R RGB_G RGB_B XYZ_X XYZ_Y XYZ_Z
END_DATA_FORMAT

NUMBER_OF_SETS 588
BEGIN_DATA
1 100.00000 100.00000 100.00000 95.145980 100.00000 109.06570
2 1.9608000 1.9608000 1.9608000 0.1365570 0.1408630 0.1915700
3 3.9216000 3.9216000 3.9216000 0.2883740 0.3019470 0.3671790
4 5.8824000 5.8824000 5.8824000 0.4732810 0.4981690 0.5837450
5 9.8039000 9.8039000 9.8039000 0.9878150 1.0476140 1.1962130
6 13.726000 13.726000 13.726000 1.7025920 1.8071030 2.0440250
7 17.647000 17.647000 17.647000 2.6041770 2.7621010 3.1101710
8 21.569000 21.569000 21.569000 3.6500120 3.8685500 4.3266790
9 25.490000 25.490000 25.490000 4.9472790 5.2136100 5.7733790
10 29.412000 29.412000 29.412000 6.6101520 6.9647010 7.6229720
11 33.333000 33.333000 33.333000 8.5599690 9.0079580 9.8269990
12 37.255000 37.255000 37.255000 10.771890 11.335190 12.368840
13 41.176000 41.176000 41.176000 13.308920 13.998350 15.273730
14 45.098000 45.098000 45.098000 16.234140 17.059550 18.632320
15 49.020000 49.020000 49.020000 19.470740 20.466420 22.354320
16 52.941000 52.941000 52.941000 22.987880 24.210570 26.394780
17 56.863000 56.863000 56.863000 26.914480 28.360840 30.888750
18 60.784000 60.784000 60.784000 31.144910 32.838960 35.745950
19 64.706000 64.706000 64.706000 35.618120 37.565300 40.920690
20 68.627000 68.627000 68.627000 40.590680 42.803280 46.594630
21 72.549000 72.549000 72.549000 45.927320 48.461700 52.904220
22 76.471000 76.471000 76.471000 51.488310 54.329810 59.349780
23 80.392000 80.392000 80.392000 57.669450 60.848420 66.249750
24 84.314000 84.314000 84.314000 64.327210 67.800280 73.783850
25 88.235000 88.235000 88.235000 71.517860 75.337940 81.999080
26 92.157000 92.157000 92.157000 78.820900 82.984650 90.531500
27 96.078000 96.078000 96.078000 86.735740 91.277010 99.744850
28 45.850100 0.0000000 50.355100 11.390800 5.5010860 20.689670
29 51.960600 39.417500 55.439800 19.049290 16.130380 27.274780
30 73.303300 0.0000000 17.096500 21.091540 10.920920 3.2057100
31 76.746400 0.0000000 32.207000 24.371410 12.501070 8.5890750
32 100.00000 61.113300 39.907200 56.197330 46.530100 17.975630
33 100.00000 71.773500 66.363200 65.924030 58.482010 44.983000
34 59.273300 54.101600 0.0000000 21.685190 24.589920 3.5736900
35 69.273000 57.339600 25.060900 29.303400 30.308460 9.0239610
36 0.0000000 36.797500 58.132300 9.2107900 9.9826310 29.451190
37 0.0000000 62.578700 80.702800 23.320630 29.346190 62.722580
38 34.164900 72.304100 84.521100 33.111780 41.092310 71.287180
39 100.00000 89.385500 100.00000 87.522630 84.463130 106.42950
40 4.8077000 0.0000000 0.0000000 0.1894070 0.1269810 0.1073380
41 19.662900 0.0000000 0.0000000 1.3589350 0.7339370 0.1394320
42 23.255800 0.0000000 0.0000000 1.8064300 0.9660010 0.1517890
43 27.108400 0.0000000 0.0000000 2.4460530 1.2981620 0.1696160
44 31.250000 0.0000000 0.0000000 3.3264950 1.7550260 0.1941120
45 35.714300 0.0000000 0.0000000 4.3169480 2.2708000 0.2216020
46 40.540500 0.0000000 0.0000000 5.6057860 2.9389900 0.2577880
47 45.774700 0.0000000 0.0000000 7.4059790 3.8726640 0.3076920
48 48.623800 0.0000000 0.0000000 8.4298540 4.4028310 0.3352630
49 51.470600 0.0000000 0.0000000 9.4906490 4.9535810 0.3653920
50 57.692300 0.0000000 0.0000000 12.182120 6.3486150 0.4393610
51 64.516100 0.0000000 0.0000000 15.664470 8.1600480 0.5359420
52 72.033900 0.0000000 0.0000000 19.892000 10.350150 0.6512070
53 80.357100 0.0000000 0.0000000 25.332540 13.168780 0.7982010
54 89.622600 0.0000000 0.0000000 32.864750 17.085590 0.9970040
55 87.571400 14.148800 19.233000 32.191670 17.653950 4.2514540
56 28.671900 13.665200 0.0000000 3.3786360 2.7053390 0.3930810
57 31.706600 18.338900 15.555800 4.8619010 4.0570490 2.7182010
58 0.0000000 10.204100 0.0000000 0.4235820 0.8044170 0.2327190
59 0.0000000 13.157900 0.0000000 0.6287890 1.2247960 0.3063320
60 0.0000000 16.304300 0.0000000 0.8830820 1.7443820 0.3963030
61 0.0000000 19.662900 0.0000000 1.1647350 2.3225430 0.4972280
62 0.0000000 23.255800 0.0000000 1.5290600 3.0691760 0.6280350
63 0.0000000 27.108400 0.0000000 2.0222420 4.0969910 0.8078540
64 0.0000000 31.250000 0.0000000 2.7329100 5.5302620 1.0586800
65 0.0000000 35.714300 0.0000000 3.5497170 7.1953910 1.3494480
66 0.0000000 40.540500 0.0000000 4.5790270 9.3242450 1.7211540
67 0.0000000 45.774700 0.0000000 6.0363800 12.307560 2.2451720
68 0.0000000 51.470600 0.0000000 7.7431390 15.798330 2.8527750
69 0.0000000 57.692300 0.0000000 10.029790 20.437000 3.6613810
70 0.0000000 64.516100 0.0000000 12.918250 26.350070 4.6919050
71 0.0000000 72.033900 0.0000000 16.453620 33.599110 5.9503380
72 0.0000000 80.357100 0.0000000 20.955910 42.806660 7.5399760
73 28.699300 86.207600 0.0000000 27.372720 51.738150 8.9066700
74 29.123200 100.00000 87.608400 50.877500 77.481610 82.590250
75 0.0000000 88.015400 100.00000 44.144120 60.179820 104.87280
76 73.500300 89.016100 100.00000 65.729740 72.664170 105.74910
77 86.909200 100.00000 100.00000 83.647300 94.006510 108.73310
78 0.0000000 0.0000000 10.204100 0.2541110 0.1389050 1.1164280
79 0.0000000 0.0000000 13.157900 0.3668090 0.1847420 1.7019440
80 0.0000000 0.0000000 16.304300 0.5019280 0.2397000 2.4099460
81 0.0000000 0.0000000 19.662900 0.6536470 0.3014110 3.2018940
82 0.0000000 0.0000000 23.255800 0.8483910 0.3805380 4.2174340
83 0.0000000 0.0000000 27.108400 1.1141020 0.4885200 5.6037280
84 0.0000000 0.0000000 31.250000 1.4749620 0.6347820 7.4841600
85 0.0000000 0.0000000 35.714300 1.8998300 0.8088690 9.7020370
86 0.0000000 0.0000000 40.540500 2.4651010 1.0364640 12.641910
87 0.0000000 0.0000000 45.774700 3.2369540 1.3518520 16.667380
88 0.0000000 0.0000000 51.470600 4.1379820 1.7196850 21.371290
89 0.0000000 0.0000000 57.692300 5.3177220 2.2013160 27.522560
90 0.0000000 0.0000000 64.516100 6.8544620 2.8306720 35.528270
91 0.0000000 0.0000000 72.033900 8.7537660 3.6048110 45.433590
92 0.0000000 0.0000000 80.357100 11.119780 4.5693450 57.736040
93 35.901900 0.0000000 100.00000 22.853990 9.9133450 95.791530
94 38.672700 45.810600 100.00000 29.806670 22.886860 98.077730
95 59.142800 68.029700 100.00000 45.967890 43.997790 101.26590
96 80.877000 79.686300 100.00000 64.844110 63.189170 103.83660
97 0.0000000 2.3364000 0.0000000 0.0976823 0.1370400 0.1171830
98 3.1447000 3.1447000 3.1447000 0.2230170 0.2317760 0.2924980
99 3.9683000 3.9683000 3.9683000 0.2882180 0.3016490 0.3671450
100 4.8077000 4.8077000 4.8077000 0.3583440 0.3753590 0.4507970
101 5.6634000 5.6634000 5.6634000 0.4333730 0.4560030 0.5399970
102 6.5359000 6.5359000 6.5359000 0.5562460 0.5880040 0.6850920
103 7.4257000 7.4257000 7.4257000 0.6520790 0.6890480 0.7956570
104 8.3333000 8.3333000 8.3333000 0.7513530 0.7953480 0.9154270
105 9.2593000 9.2593000 9.2593000 0.9211520 0.9755560 1.1186680
106 10.204100 10.204100 10.204100 1.0486200 1.1134590 1.2708650
107 11.168400 11.168400 11.168400 1.1783680 1.2497490 1.4243130
108 12.152800 12.152800 12.152800 1.3879940 1.4715460 1.6767650
109 13.157900 13.157900 13.157900 1.6154480 1.7132030 1.9468190
110 14.184400 14.184400 14.184400 1.7765230 1.8844080 2.1356390
111 15.233000 15.233000 15.233000 2.0364900 2.1631760 2.4424040
112 16.304300 16.304300 16.304300 2.3114310 2.4530920 2.7660010
113 17.399300 17.399300 17.399300 2.5027780 2.6537010 2.9863820
114 18.518500 18.518500 18.518500 2.7962670 2.9636330 3.3328070
115 19.662900 19.662900 19.662900 3.0938770 3.2817830 3.6772920
116 20.833300 20.833300 20.833300 3.4365270 3.6334700 4.0719210
117 22.030700 22.030700 22.030700 3.7774650 3.9850660 4.4582640
118 23.255800 23.255800 23.255800 4.1279720 4.3566940 4.8680380
119 24.509800 24.509800 24.509800 4.5111110 4.7546440 5.2977010
120 25.793600 25.793600 25.793600 5.0754350 5.3563270 5.9257950
121 27.108400 27.108400 27.108400 5.5621150 5.8602550 6.4654660
122 28.455300 28.455300 28.455300 6.2291860 6.5678900 7.1998210
123 29.835400 29.835400 29.835400 6.7736490 7.1337880 7.8051210
124 31.250000 31.250000 31.250000 7.5403540 7.9297030 8.6664700
125 32.700400 32.700400 32.700400 8.0982760 8.5413620 9.3294400
126 34.188000 34.188000 34.188000 8.9571330 9.4253160 10.282520
127 35.714300 35.714300 35.714300 9.7809890 10.310940 11.236170
128 37.280700 37.280700 37.280700 10.727630 11.292970 12.325460
129 38.888900 38.888900 38.888900 11.689380 12.310640 13.415130
130 40.540500 40.540500 40.540500 12.723810 13.390750 14.640640
131 42.237400 42.237400 42.237400 14.119780 14.850550 16.229420
132 43.981500 43.981500 43.981500 15.290070 16.080220 17.545970
133 45.774700 45.774700 45.774700 16.795100 17.646170 19.270780
134 47.619100 47.619100 47.619100 18.070310 18.992050 20.768900
135 49.516900 49.516900 49.516900 19.731750 20.753550 22.675810
136 51.470600 51.470600 51.470600 21.485110 22.603080 24.673410
137 53.482600 53.482600 53.482600 23.347540 24.558760 26.807030
138 55.555600 55.555600 55.555600 25.670250 27.037890 29.486040
139 57.692300 57.692300 57.692300 27.710360 29.197200 31.801580
140 59.895800 59.895800 59.895800 30.272470 31.896720 34.752450
141 62.169300 62.169300 62.169300 32.866830 34.649990 37.749030
142 64.516100 64.516100 64.516100 35.662170 37.597450 40.972320
143 66.939900 66.939900 66.939900 38.520620 40.607050 44.286300
144 69.444400 69.444400 69.444400 41.648670 43.908310 47.872870
145 72.033900 72.033900 72.033900 45.322700 47.823630 52.231560
146 74.712600 74.712600 74.712600 49.153850 51.896580 56.681100
147 77.485400 77.485400 77.485400 53.218970 56.179560 61.311810
148 80.357100 80.357100 80.357100 57.596240 60.770330 66.214730
149 83.333300 83.333300 83.333300 62.241750 65.607390 71.389500
150 86.419700 86.419700 86.419700 67.767960 71.394800 77.744650
151 89.622600 89.622600 89.622600 74.491180 78.430310 85.506870
152 92.948700 92.948700 92.948700 80.297890 84.530090 92.316010
153 96.405200 96.405200 96.405200 87.564400 92.113900 100.71340
154 54.915900 0.0000000 78.520100 21.495040 10.015600 55.041300
155 58.979600 0.0000000 100.00000 31.219580 14.246020 96.053510
156 63.995900 0.0000000 68.264900 23.007060 11.116150 40.539690
157 78.970100 0.0000000 100.00000 42.653050 20.169920 96.385910
158 79.399700 28.965900 100.00000 45.349690 25.181440 97.289640
159 0.0000000 100.00000 80.315000 45.648650 74.965480 70.124310
160 0.0000000 100.00000 100.00000 52.902020 78.004300 107.89250
161 38.819500 100.00000 100.00000 58.214830 80.781380 108.08440
162 68.038200 100.00000 100.00000 70.532310 87.190280 108.41140
163 0.0000000 40.590100 41.307600 7.2576950 10.638470 14.949810
164 0.0000000 57.528900 54.337100 14.763220 22.470020 28.081100
165 0.0000000 73.858600 62.079700 23.533350 37.904620 38.626010
166 0.0000000 70.687700 76.896400 25.794000 36.261960 57.953540
167 0.0000000 76.965400 100.00000 37.401390 46.440520 102.47990
168 31.445600 78.907000 100.00000 41.959990 50.567460 103.02320
169 55.399900 89.807700 100.00000 56.808920 68.869880 105.68590
170 76.608100 54.858700 63.605800 38.301680 32.985180 38.317490
171 100.00000 61.899800 71.183100 62.694560 49.747720 50.231390
172 65.989000 50.806400 40.504900 26.548540 25.243430 16.078060
173 79.592700 59.164900 53.370400 40.060970 36.680590 28.068880
174 45.496400 100.00000 0.0000000 41.866210 74.259690 12.408930
175 65.657700 100.00000 22.470100 51.544030 79.197860 16.692980
176 82.599400 100.00000 42.621100 64.585540 85.760640 27.612440
177 82.320200 100.00000 61.611100 67.662770 86.976160 45.253980
178 100.00000 100.00000 64.105100 83.511950 95.148630 48.546640
179 0.0000000 89.622600 0.0000000 27.070740 55.263320 9.6884350
180 0.0000000 100.00000 32.710600 36.067350 71.061260 20.326600
181 33.928300 100.00000 50.585800 42.540950 74.162690 33.281680
182 100.00000 49.772400 0.0000000 49.475400 36.806480 3.8277400
183 100.00000 68.048200 0.0000000 56.787120 51.748830 6.4295300
184 100.00000 100.00000 0.0000000 76.720510 92.349580 13.357710
185 100.00000 100.00000 37.940600 78.932770 93.274140 24.801080
186 64.398700 100.00000 56.485400 55.278210 80.667070 39.357380
187 71.578500 100.00000 76.223900 64.223950 84.788320 64.206480
188 0.0000000 0.0000000 0.0000000 0.0604526 0.0600139 0.1038220
189 0.0000000 78.154000 30.470900 20.999630 40.645230 14.156570
190 0.0000000 100.00000 57.363600 39.768310 72.546530 39.548740
191 100.00000 100.00000 100.00000 95.169290 99.990570 109.11050
192 28.024800 46.234700 0.0000000 8.7362950 13.935230 2.3667020
193 50.305500 62.592000 0.0000000 21.139230 29.421900 4.6641630
194 52.435200 75.899300 38.861800 30.904270 44.151240 18.730210
195 66.693000 88.803300 41.630900 45.759090 63.525350 23.540080
196 0.0000000 22.099500 35.038400 3.1766620 3.5572850 9.8192960
197 0.0000000 22.485300 46.143700 4.7120840 4.2436990 17.554170
198 0.0000000 28.198100 63.910800 8.8744260 7.2114840 35.480380
199 60.827600 27.491300 71.214800 24.417950 14.934870 45.746830
200 0.0000000 10.720000 21.362100 1.1306780 1.1345020 3.7966400
201 0.0000000 11.170500 34.740700 2.2455310 1.6267890 9.4839780
202 100.00000 0.0000000 48.238500 45.821930 23.380360 20.010470
203 100.00000 0.0000000 63.331100 48.702840 24.561560 35.072170
204 100.00000 28.837600 64.403600 51.372590 29.509530 37.515540
205 100.00000 46.284800 78.478100 59.024760 39.030420 58.397890
206 50.583600 0.0000000 16.378500 9.6575850 4.9915880 2.6888060
207 58.212800 14.381400 26.537500 14.139240 8.2828400 6.1101100
208 63.468500 34.322100 44.343500 21.495550 15.918890 17.312450
209 0.0000000 37.279300 17.696800 4.3974020 8.1375100 4.0998440
210 0.0000000 48.119300 35.255700 8.5781410 14.531860 11.959730
211 43.141700 62.893500 38.162800 20.844810 29.088440 15.822170
212 42.272800 66.913700 69.192200 28.258750 35.207220 46.527060
213 100.00000 78.087700 84.659100 74.479370 67.373000 73.587770
214 100.00000 0.0000000 100.00000 60.581200 29.468960 96.902210
215 100.00000 26.936200 100.00000 62.662240 33.707020 97.621140
216 100.00000 46.401000 100.00000 66.905260 42.371660 99.151540
217 0.0000000 7.4257000 0.0000000 0.2773750 0.5039600 0.1805930
218 0.0000000 11.303300 12.457300 0.7757700 1.0694430 1.7063480
219 100.00000 0.0000000 0.0000000 42.199770 21.907820 1.2247090
220 100.00000 0.0000000 19.732500 42.810150 22.159780 4.4029870
221 100.00000 0.0000000 33.985100 43.910120 22.614470 10.196090
222 100.00000 28.183900 47.567500 47.932080 27.890320 20.235190
223 0.0000000 0.0000000 0.0000000 0.0604723 0.0600125 0.1038600
224 0.0000000 0.0000000 2.3364000 0.0801886 0.0681526 0.2076130
225 0.0000000 0.0000000 89.622600 14.370150 5.9154440 74.697580
226 30.868400 33.133300 100.00000 24.726350 15.522260 96.944410
227 0.0000000 22.757200 77.885300 11.853270 7.2483390 54.598620
228 0.0000000 40.937100 80.760800 15.912130 14.189840 60.089550
229 32.083000 67.733300 100.00000 36.425220 38.994140 101.01060
230 100.00000 77.358200 100.00000 79.921930 68.979700 103.79400
231 28.302700 19.223600 38.942600 6.0483410 4.5721120 12.238790
232 28.114400 31.811900 47.644400 8.9832460 8.5670410 19.237700
233 38.441200 32.782700 67.657700 15.774200 11.965550 40.981710
234 51.015400 40.972400 89.476000 28.428000 20.446170 76.131140
235 60.294600 55.809600 100.00000 41.415280 33.871890 99.489170
236 81.028800 0.0000000 51.995900 30.224790 15.229670 23.011450
237 100.00000 0.0000000 77.724600 52.483170 26.115090 54.792580
238 100.00000 28.724800 82.541800 56.235600 31.411770 63.159950
239 16.311800 0.0000000 10.886400 1.2428240 0.6490390 1.2833140
240 29.922300 0.0000000 27.706900 4.1255480 2.0433140 6.0302620
241 48.540300 0.0000000 36.585500 10.392670 5.2046600 10.461460
242 72.564000 31.669300 40.201100 25.430360 17.236550 14.375020
243 100.00000 100.00000 100.00000 95.161740 99.972750 109.11030
244 73.695700 79.342700 0.0000000 41.161850 52.322180 7.8919120
245 75.742400 100.00000 0.0000000 56.595420 81.891190 12.810220
246 0.0000000 100.00000 0.0000000 34.522510 70.397890 12.229830
247 29.495300 100.00000 22.503100 38.224550 72.280790 16.282130
248 50.792200 100.00000 71.883500 52.659860 78.893680 57.715350
249 68.947000 0.0000000 55.908400 23.087120 11.457230 26.545560
250 79.469700 30.092700 68.713500 35.153410 21.273690 42.336730
251 7.4257000 0.0000000 0.0000000 0.3122580 0.1908000 0.1106810
252 10.204100 0.0000000 0.0000000 0.4794510 0.2774570 0.1152400
253 13.157900 0.0000000 0.0000000 0.7173530 0.4009580 0.1218890
254 16.304300 0.0000000 0.0000000 1.0141230 0.5549410 0.1300250
255 30.162100 55.117900 100.00000 30.742240 28.057190 99.146970
256 0.0000000 0.0000000 100.00000 18.425100 7.5962930 95.729720
257 0.0000000 23.177200 100.00000 19.916530 10.678750 96.302340
258 0.0000000 40.510900 100.00000 23.042870 17.036000 97.403320
259 0.0000000 54.350100 100.00000 27.302370 25.781650 98.934830
260 0.0000000 66.098000 100.00000 32.050540 35.506720 100.65650
261 0.0000000 83.281600 55.115000 27.517980 48.274290 33.348250
262 20.046600 86.915300 67.315800 34.116720 55.263330 48.224160
263 61.923800 25.107500 0.0000000 15.992540 10.954200 1.1115000
264 75.430600 46.922400 0.0000000 28.171700 24.381940 2.9798170
265 83.130900 78.139100 51.807900 51.387820 56.197780 29.854510
266 40.195500 40.605300 0.0000000 10.169000 12.415390 1.9199180
267 42.002000 40.693900 31.170500 12.274320 13.403540 9.3019680
268 54.030700 52.912600 64.310600 25.818300 25.387040 38.652550
269 0.0000000 0.0000000 4.8077000 0.1180590 0.0835965 0.4046040
270 0.0000000 0.0000000 7.4257000 0.1747250 0.1067120 0.7029250
271 34.150200 0.0000000 16.694500 4.4241670 2.2730610 2.6381420
272 38.145600 15.349400 22.637800 6.4974490 4.4402930 4.5633020
273 56.762900 16.743500 38.847000 15.018600 8.9017420 12.400870
274 0.0000000 4.8077000 0.0000000 0.1682510 0.2813280 0.1423450
275 0.0000000 22.508000 13.554400 1.7777480 3.0456740 2.2943620
276 22.138500 36.544700 17.885600 5.9067880 8.6858250 4.2164940
277 58.168200 32.639400 23.059300 16.177730 12.812650 5.6958840
278 100.00000 46.362500 27.014800 49.537200 35.121850 9.1423070
279 100.00000 52.592600 49.665200 54.395020 40.411950 24.514630
280 29.843400 24.241700 0.0000000 4.6081000 4.9004950 0.7614510
281 52.699800 36.070800 0.0000000 13.565120 12.568330 1.6645170
282 55.563300 37.021300 17.645100 15.662320 13.878450 4.4234240
283 100.00000 60.018100 21.911500 54.024120 44.847650 9.1011980
284 100.00000 73.895400 31.379500 61.043550 58.025430 15.059360
285 32.710500 45.501900 37.530400 11.667160 14.916720 13.278040
286 40.375300 50.032900 71.482700 21.648860 21.607630 47.396300
287 56.246100 60.487000 83.457700 34.890880 33.868010 67.559640
288 100.00000 63.531400 85.601900 67.570500 52.808070 72.406730
289 100.00000 100.00000 86.566000 89.967120 97.803610 82.333890
290 14.111600 16.691200 0.0000000 1.6531480 2.2016380 0.4305560
291 20.007800 30.300300 0.0000000 3.8814610 5.8478820 1.0286220
292 28.723100 35.406300 41.303000 8.7737150 9.5893700 14.637170
293 0.7645000 0.7645000 0.7645000 0.0753152 0.0760251 0.1213630
294 1.5432000 1.5432000 1.5432000 0.1121040 0.1150290 0.1636820
295 2.3364000 2.3364000 2.3364000 0.1637000 0.1693060 0.2231290
296 0.0000000 56.701700 22.927800 10.490170 20.172750 7.5908070
297 44.729600 72.388600 63.990500 30.500310 40.604930 41.056500
298 80.920400 30.846800 0.0000000 28.272170 18.732870 1.7495190
299 100.00000 30.670100 0.0000000 44.767360 27.198320 2.1477960
300 100.00000 85.598300 26.459300 67.396950 71.708610 15.192110
301 100.00000 87.840700 70.830000 76.474090 78.058870 54.573630
302 13.481800 0.0000000 20.362600 1.3638090 0.6645770 3.4594880
303 22.063500 0.0000000 38.129500 3.7867940 1.7542240 11.229370
304 35.731500 17.009500 61.749100 11.387700 6.5877060 32.486760
305 54.367000 24.719600 100.00000 31.013710 16.755740 96.687770
306 82.402200 52.027100 100.00000 53.466390 38.188140 99.422690
307 43.537900 12.869300 73.614200 16.393090 8.3608440 48.205460
308 78.327400 30.744100 85.235600 39.227390 22.969550 67.536710
309 17.303600 62.416200 51.766000 17.209320 26.692480 26.211910
310 15.263100 78.111000 88.414400 34.305480 46.231910 78.784980
311 43.595300 85.635500 88.739700 44.769630 58.508270 81.368190
312 30.263500 63.960100 0.0000000 15.623110 27.257250 4.6629140
313 53.499900 82.400600 0.0000000 32.450060 50.596520 8.2533810
314 15.740600 22.479200 27.148400 3.4268980 3.8335990 6.1923770
315 25.672600 22.514300 32.411700 5.1337190 4.6647550 8.7096850
316 44.265900 87.024300 38.926200 34.381470 55.961870 20.959420
317 73.190200 89.617100 66.982700 55.242070 69.149350 49.040460
318 89.594500 100.00000 76.649600 77.138890 91.452130 65.162900
319 17.884100 52.721900 34.443300 11.099250 18.031740 12.161190
320 21.752800 70.978500 50.547600 21.510530 34.998970 26.602820
321 65.775300 72.557900 89.670600 47.544300 48.664820 81.341570
322 3.8891000 17.257400 23.807000 1.9009790 2.2942230 4.8127400
323 15.149300 23.674300 37.884600 4.5908880 4.5156800 11.807100
324 15.002200 33.219700 47.397200 7.3772990 8.1701610 19.210290
325 35.583800 50.155600 49.915600 15.602670 18.945570 22.935100
326 67.730800 63.765000 71.889900 38.769810 38.441860 50.180800
327 79.664700 66.702000 75.987900 48.518640 45.227180 56.986480
328 90.288300 68.627000 84.378000 60.420910 52.583080 70.790780
329 80.740200 29.038800 25.322700 28.942120 18.492970 6.6310320
330 81.912900 22.130400 8.9255000 28.078330 16.668530 2.1587920
331 91.111900 43.862100 12.562000 39.634010 28.988710 4.4777990
332 63.180500 35.788300 7.4459000 18.553900 15.033650 2.3911100
333 68.707400 46.919400 21.030700 24.982110 22.675410 6.4959810
334 73.113000 46.661300 32.245400 28.223590 24.094170 10.823280
335 42.425700 30.445600 7.7091000 8.9477600 8.5746890 1.8553970
336 58.046300 46.766300 10.409800 18.882240 19.366110 3.7875970
337 64.259600 70.301400 12.980700 31.353990 39.944830 7.6205250
338 79.805400 74.077700 14.538400 42.997150 49.018840 8.9399600
339 100.00000 83.862400 0.0000000 65.358570 69.246410 9.4737300
340 100.00000 26.731500 18.307400 44.714780 26.173900 4.8159570
341 100.00000 32.249100 35.085700 46.921590 28.584240 11.700030
342 0.0000000 0.0000000 0.0000000 0.0604810 0.0600408 0.1038670
343 32.431100 0.0000000 57.524900 8.8935640 4.0492350 27.770740
344 38.944100 56.734900 65.158800 21.945640 25.546600 39.937640
345 54.348900 62.309200 73.841300 32.076010 33.937730 52.517950
346 74.972500 68.947800 27.677900 37.714770 42.288540 11.980510
347 77.096100 83.646100 33.444600 47.760850 59.566760 17.462950
348 85.440100 91.301600 51.933100 61.731770 74.456430 32.902500
349 100.00000 100.00000 100.00000 95.132910 99.946860 109.11030
350 90.251600 56.246800 6.1817000 42.755190 36.624130 4.8615000
351 88.617100 88.068300 13.474700 58.298280 69.838830 11.856820
352 91.766900 87.676500 41.306900 62.831520 71.576120 23.595470
353 33.202200 38.444000 10.746000 8.1419070 10.536290 2.7811120
354 45.905400 42.185000 17.894300 13.096170 14.534440 4.8750330
355 78.316300 47.525400 52.596200 34.869180 27.611120 25.730740
356 84.970700 61.689300 87.852500 54.361310 44.545380 76.003540
357 100.00000 61.561500 100.00000 72.340470 53.521850 101.11320
358 31.398600 0.0000000 77.249200 13.472220 5.8896460 52.920120
359 44.429900 10.887500 88.488800 21.281310 10.181420 72.851440
360 61.924800 26.343700 88.710300 30.152080 17.061130 73.646830
361 62.845800 41.442400 100.00000 38.124170 25.389130 97.947270
362 22.578400 8.4875000 31.783100 3.5117760 2.1118390 7.8925380
363 37.332800 12.775600 37.987300 7.4451320 4.4937900 11.536570
364 50.513800 25.111300 45.403200 14.132170 9.6643130 17.410570
365 83.062000 41.520000 57.549800 37.745580 26.517920 30.379900
366 89.540300 55.806200 71.376900 50.516400 39.544820 48.887110
367 19.496200 89.381100 36.105700 30.100450 56.260770 19.670830
368 47.663300 90.142200 72.999200 44.555980 63.798780 56.770200
369 14.204200 65.027500 65.837200 21.020150 30.156680 41.886690
370 20.352600 64.500400 87.876800 27.908340 32.527520 75.662540
371 65.629800 42.991800 57.013200 26.655720 21.402220 29.376270
372 74.810100 44.675100 80.409500 38.509630 27.574860 60.648400
373 89.791300 44.935300 81.719700 50.323710 33.858900 62.929060
374 40.989400 65.743800 20.600900 20.028390 30.839550 8.5655400
375 66.957300 73.456900 38.220900 36.274960 44.691390 17.887000
376 88.719700 73.699400 57.497100 54.658470 54.230940 34.981290
377 19.111900 91.400700 12.416300 29.697270 58.186750 11.554810
378 54.839900 100.00000 38.666100 47.844810 77.085360 24.324970
379 60.174200 100.00000 87.373100 61.469520 82.936660 82.927650
380 84.846200 100.00000 88.766400 77.213990 91.067800 85.632270
381 35.291500 59.977800 45.891600 18.489840 26.024700 20.925950
382 49.391500 61.526300 56.793100 25.585320 30.472040 31.402470
383 55.048800 65.457400 68.020900 31.968440 36.065550 44.808530
384 60.370600 75.322100 70.709600 40.087970 47.594540 50.359740
385 16.409800 41.043000 30.549600 7.1737240 10.913450 8.9467380
386 32.040900 49.137800 30.310000 11.857350 16.708550 9.6356970
387 14.737500 16.249800 43.737500 4.5821500 3.3010420 15.592280
388 17.775800 26.428100 51.990500 7.2954610 6.2300800 22.984400
389 30.084200 36.901000 63.566100 13.475120 12.076990 35.763590
390 30.397700 42.991900 79.644400 19.381050 16.999850 58.679320
391 21.709800 46.654600 73.334400 16.964600 17.424350 49.617500
392 46.372100 54.116300 92.079000 31.646370 28.154890 82.735080
393 58.475400 78.862500 100.00000 51.239060 55.348150 103.32400
394 22.729200 60.437300 69.830600 21.030410 27.043870 46.409830
395 41.952800 66.458800 86.268500 32.889890 36.473190 73.115680
396 52.573400 74.503900 86.315900 40.863770 46.861070 74.708580
397 17.037100 9.7766000 0.0000000 1.4005560 1.2776840 0.2524660
398 31.328900 10.299300 5.4819000 3.7754850 2.5444160 0.7104680
399 35.050600 32.980400 15.286800 7.5527270 8.4751660 3.3487640
400 26.391600 53.768700 14.952800 11.248720 18.869940 5.1974870
401 27.086200 62.072200 32.352400 15.745760 25.980960 12.269000
402 24.088800 89.406300 53.231400 33.256080 57.609570 33.054930
403 24.687700 100.00000 71.415400 45.131880 74.993580 56.904200
404 0.0000000 14.784300 54.445000 5.4225820 3.3779690 24.641330
405 16.517200 13.804800 83.477400 13.744870 6.7525870 63.350150
406 68.080300 11.761800 88.303600 31.947180 15.810770 72.420490
407 86.642100 43.548900 91.702600 50.873320 33.110080 81.437020
408 70.194200 19.140300 72.397400 28.808160 15.669030 47.187020
409 49.969000 13.976700 50.026700 13.502750 7.5745680 21.009330
410 62.436100 15.283300 54.181400 19.897390 10.971070 24.864660
411 62.300200 34.528000 61.560100 23.994860 16.858760 33.689710
412 81.894100 45.057500 69.297600 40.498010 29.120470 44.787900
413 33.128800 16.268300 28.789800 5.6899550 4.0717140 6.6902180
414 36.074600 25.542000 30.094300 7.5915500 6.5315990 7.7918570
415 44.784800 28.107500 74.994800 18.788900 12.075340 50.541690
416 49.895600 47.043900 77.694500 25.649540 22.002020 56.130530
417 70.041300 13.417900 48.136200 23.007170 12.450970 19.541510
418 93.624000 20.736500 68.645100 45.256720 24.555040 42.237340
419 50.235100 25.300700 34.284600 12.609690 9.1007170 9.9040840
420 56.393900 47.033500 43.634500 21.003900 20.373230 17.711930
421 71.280800 80.725000 53.895900 45.363070 55.447440 32.017980
422 75.895100 81.420500 66.696100 51.433700 59.005330 46.663100
423 91.233300 90.189800 67.809800 69.183540 76.745850 50.540490
424 12.824600 10.559600 4.6039000 1.1406610 1.2115320 0.5655540
425 12.507900 12.923000 20.707100 1.8764120 1.7643590 3.7904000
426 29.343500 20.438500 51.160400 8.1978100 5.6757300 21.738100
427 38.373500 29.682600 51.064300 11.632910 9.3646510 22.245880
428 26.357400 13.640400 71.233300 11.463570 5.9654970 44.797570
429 55.138300 38.889700 70.895400 23.888500 17.959690 45.851050
430 59.832300 0.0000000 32.766700 14.890510 7.5779540 8.6836280
431 69.632000 15.860600 39.092000 21.620900 12.166540 12.807780
432 77.190600 60.813900 42.188300 37.182570 36.290260 18.955130
433 78.579400 73.497500 61.595000 47.294030 49.995320 38.964110
434 24.090200 36.698700 34.832900 7.5088130 9.5117600 10.804460
435 23.212300 80.859300 72.045700 31.833890 47.944770 53.345950
436 22.850400 86.931000 87.256100 40.445650 57.905630 79.294950
437 17.026600 25.740900 7.6053000 3.0113440 4.3689360 1.3915010
438 17.746000 39.400000 8.2699000 5.5817450 9.4606500 2.3862220
439 39.113500 49.850900 22.638400 13.336930 17.918800 6.9075130
440 58.514600 50.648700 31.767300 21.612380 22.545130 10.853060
441 68.125900 56.350300 56.439400 32.412310 30.951970 30.535970
442 68.689000 56.349100 69.315900 35.601250 32.304850 45.867660
443 71.622900 65.488100 85.688300 46.034030 42.830490 72.704360
444 73.308600 16.370900 31.162800 22.881600 13.020870 8.2965250
445 89.492100 16.485700 31.422700 34.879100 19.248510 8.8290760
446 84.110800 4.8791000 43.473500 31.043890 15.988250 15.899100
447 90.409800 24.473800 50.506500 39.184810 22.419160 22.496890
448 37.411800 6.4405000 12.400500 5.1943810 2.9550460 1.7543590
449 53.906300 11.964200 13.310000 11.305550 6.6182230 2.1975310
450 67.178900 17.829200 21.858700 18.665000 11.070850 4.7447770
451 87.327600 36.685000 45.104900 37.883310 25.166420 18.530990
452 100.00000 45.895400 60.477000 54.265220 36.886540 34.333440
453 28.559400 20.502300 7.9414000 4.1022790 3.9730680 1.2689250
454 40.421000 27.217000 16.496900 8.1187570 7.2396530 3.3225980
455 39.647700 36.302600 45.849900 12.372350 11.743680 18.333180
456 43.134200 48.709900 55.668700 18.372490 19.516060 28.429290
457 71.767900 77.258700 84.738900 51.510870 54.681070 72.683810
458 72.970400 86.035500 87.420300 58.392290 66.073880 79.610760
459 88.196400 90.121300 100.00000 77.467930 79.951130 106.41690
460 81.637600 34.987300 16.481700 30.097680 20.771640 4.3950360
461 80.971700 46.817600 19.975500 32.584730 26.464900 6.3465070
462 77.712300 56.810700 14.715800 33.536410 32.268320 6.2173290
463 87.748600 71.826000 38.426100 49.846150 50.579460 18.322010
464 0.0000000 23.108200 25.888600 2.5096180 3.4827100 5.6854710
465 0.0000000 32.403000 26.818500 3.9732390 6.4084070 6.4981020
466 0.0000000 35.448500 45.391400 6.6369300 8.3611010 17.684520
467 13.349400 35.308400 62.170400 10.484830 10.056950 34.189770
468 13.344400 47.828700 63.657600 13.915180 16.650670 36.694470
469 17.414900 55.400900 90.294600 24.794020 25.298910 78.941140
470 2.3364000 0.0000000 0.0000000 0.1048690 0.0832027 0.1050770
471 15.665700 51.398600 54.934100 13.472600 18.337540 27.759580
472 31.038200 61.643100 56.780900 20.083050 27.604770 31.257230
473 17.426700 64.668800 20.437300 14.677390 27.287870 8.1260310
474 53.949700 76.970800 19.404100 30.289030 44.618100 10.230490
475 69.730500 85.570100 17.291700 43.221250 59.166790 11.726870
476 88.009100 100.00000 19.865700 66.448610 86.945840 16.414010
477 44.151600 20.526000 0.0000000 8.0899180 6.0432180 0.7182310
478 47.302300 20.999100 11.190600 9.5573290 6.9224570 2.0211250
479 48.257100 29.375700 29.384200 11.983360 9.7392170 7.7647860
480 50.778100 39.235800 28.592300 14.762560 14.147370 8.1394090
481 58.347700 49.103900 55.965300 24.664500 22.990290 29.070990
482 11.450700 14.108100 29.955100 2.4938390 2.1502110 7.0578500
483 14.228800 32.278700 85.537800 16.427380 11.512490 67.602290
484 19.669500 43.971500 93.544400 22.726550 18.540410 84.476770
485 15.991200 16.980700 62.780400 8.2491490 4.9213360 33.684640
486 18.923400 28.463700 69.584600 11.528890 8.5602080 42.620320
487 34.086200 34.122500 81.231300 18.585630 13.369000 60.397290
488 57.067000 81.395000 84.533300 46.324430 55.782240 73.325270
489 69.500000 93.017500 85.110800 60.284890 74.386850 76.867410
490 0.0000000 50.645700 60.941000 13.457060 17.757840 33.730080
491 0.0000000 49.813500 76.525600 17.153160 18.857390 54.304910
492 0.0000000 85.022400 80.570000 34.995090 53.320460 66.344600
493 31.295400 89.282800 100.00000 48.621020 64.156160 105.41480
494 90.170700 39.775200 38.272000 39.846620 27.224330 14.095840
495 100.00000 73.138700 54.671900 64.120360 58.940220 32.106920
496 100.00000 88.655200 84.196500 80.931430 80.741290 75.254020
497 25.156900 7.5307000 10.832000 2.5590980 1.6680690 1.4000470
498 25.542300 15.722700 19.559300 3.5635860 2.9812320 3.5788220
499 22.264600 16.311900 10.953000 2.7700280 2.7131360 1.6081880
500 24.041700 24.387100 12.543800 3.8312210 4.4708870 2.1936920
501 33.818900 28.832700 22.589300 6.9917020 7.0866830 5.0915070
502 67.825200 29.695100 51.715700 24.114700 15.824190 23.341410
503 84.854200 30.211000 59.091600 36.879160 22.385170 31.229770
504 61.447300 40.437300 37.965100 20.892570 17.660550 13.318960
505 63.221000 44.655400 48.611500 24.344850 21.007860 21.612870
506 38.814500 26.504500 40.115900 9.5509840 7.6869470 13.370140
507 40.562200 26.525700 88.076400 21.412820 12.624930 72.663980
508 82.774100 0.0000000 79.586900 38.009090 18.540180 57.378330
509 91.176300 19.549100 83.957900 47.229560 24.913890 65.227140
510 46.512400 8.0736000 24.291800 8.8731590 4.9284700 4.9514620
511 51.894200 62.053500 27.640400 22.575800 29.594930 10.322540
512 68.682700 64.486800 42.355600 33.414040 36.574180 19.289360
513 9.7890000 17.474400 9.6210000 1.5766070 2.2526110 1.4054990
514 12.288400 24.018300 21.943300 2.9394470 3.8888190 4.4964780
515 14.712200 31.430300 35.716200 5.4207620 6.7758600 10.790420
516 20.838600 42.553800 49.516800 10.493780 12.970410 21.689650
517 30.393900 43.151100 57.441000 13.733430 14.654120 29.324610
518 44.522700 42.933100 61.027600 18.361810 16.817120 33.729860
519 0.0000000 0.0000000 0.0000000 0.0604564 0.0599999 0.1039090
520 16.884700 6.9027000 9.9496000 1.4493640 1.0685390 1.1612790
521 21.291600 10.067100 22.298300 2.6854560 1.9014770 4.2065900
522 42.560100 12.077900 31.610300 8.3571900 4.9575950 8.1270320
523 52.034400 12.965100 65.165200 17.331860 9.1022720 36.651290
524 82.059500 10.710500 66.142200 34.178260 17.558710 38.574370
525 84.143300 18.283300 91.344600 44.385010 22.983790 79.055640
526 83.284500 68.805400 100.00000 60.767080 52.210610 101.85710
527 8.0432000 5.0758000 13.015300 0.7773170 0.5846590 1.6844980
528 9.4125000 5.8398000 20.475200 1.2245620 0.8250890 3.5161390
529 11.432900 6.3849000 34.954000 2.5147390 1.3905300 9.4305880
530 32.892900 9.1946000 45.694400 7.1925660 3.8650300 17.011530
531 51.399400 69.538100 53.044800 29.168720 37.798870 28.797900
532 57.573700 82.565900 54.928100 39.517780 54.193900 33.400100
533 10.781800 28.584400 15.060300 3.1334350 5.0242450 2.8791260
534 20.586700 30.983200 22.815000 4.8966100 6.5142730 5.1344660
535 31.476900 37.809700 25.366000 8.2631290 10.258500 6.5721470
536 32.645000 75.270700 74.619800 31.177990 42.817040 55.580280
537 50.254500 87.160200 80.995900 45.663350 60.845660 68.437130
538 15.375300 79.016700 17.779300 21.449440 41.696830 9.9088730
539 45.923400 87.107400 18.545000 33.199430 55.522660 12.090730
540 45.089500 90.005700 56.942700 39.750990 61.683620 36.965420
541 79.918600 66.328400 0.0000000 38.652030 40.819730 5.6417680
542 88.425700 69.970200 19.341600 47.539640 48.032490 9.5257040
543 33.289400 76.053400 22.209000 23.088320 40.189250 10.764540
544 36.375500 76.167800 43.108800 25.945410 41.453300 21.524200
545 40.047800 77.258800 58.887000 30.285200 44.364270 36.049020
546 12.271000 46.914900 20.933000 7.6570710 13.627670 5.8733490
547 18.863500 48.269200 43.633100 10.880660 15.642570 17.470150
548 30.336400 54.684700 72.749400 20.936780 23.438290 49.974920
549 41.085300 59.349900 88.182900 30.390310 30.585890 75.773170
550 85.322900 76.758700 89.766600 62.763630 60.002010 82.522490
551 64.290200 31.167300 31.052200 19.585630 14.084810 8.8034130
552 77.995300 43.074300 39.621300 31.344100 24.141820 14.853630
553 87.946300 57.258700 45.500300 44.384260 37.847200 21.045700
554 91.644900 57.550900 56.857500 49.731490 40.652670 31.611970
555 26.424200 4.0180000 18.858500 2.9577980 1.6298940 3.1175370
556 44.817300 19.736700 19.190300 8.7648730 6.2259780 3.7454580
557 45.850900 25.207400 55.422700 14.052110 9.4252060 26.151270
558 61.114500 50.219800 72.771500 30.344820 26.070400 49.829960
559 74.082800 50.767400 73.336900 37.758210 30.121350 50.645410
560 45.305600 35.817800 36.009800 12.799990 11.863640 11.578510
561 50.909100 36.762700 44.518000 16.267020 13.917890 17.585300
562 65.656500 40.039600 86.294700 33.785850 23.035150 70.158000
563 68.095700 56.656300 89.023900 41.431030 34.686240 77.304120
564 0.0000000 64.154300 41.238800 15.306550 27.067670 17.820950
565 13.558800 75.748900 40.199000 21.514160 38.873170 19.328770
566 60.700900 83.044300 68.139700 44.156310 56.650070 48.728160
567 73.909900 85.545900 76.423600 55.058020 64.294150 61.193510
568 88.811700 93.954600 84.866200 74.582090 83.095250 76.885680
569 47.306000 50.950900 32.464200 17.232060 20.459080 11.156820
570 53.012300 52.418400 42.444700 21.106000 23.171030 17.440260
571 67.413200 60.630700 51.088600 32.643000 33.795800 25.823410
572 89.106900 73.309400 67.255300 56.986700 54.903850 46.373350
573 88.375700 84.780000 75.841200 65.059720 68.772870 60.164440
574 45.294900 55.384500 44.571400 19.562950 23.814330 19.468000
575 100.00000 85.986100 50.455400 70.674240 73.510230 30.983020
576 42.096400 52.270000 8.5783000 14.303140 19.657610 3.9134150
577 56.637800 55.521400 20.380800 21.623670 25.352540 7.1336900
578 63.749900 16.794600 9.0026000 16.326790 9.8122500 1.6719400
579 66.946000 31.314400 16.264300 20.119980 14.565450 3.7996760
580 87.988100 43.679700 30.785000 38.128870 27.931610 10.283240
581 89.044400 61.968800 34.444600 45.844540 41.644630 14.382320
582 89.093700 66.267000 69.360200 54.007240 48.045580 47.753380
583 60.626700 67.820900 47.877200 31.713220 38.034300 24.051420
584 63.727100 68.182500 57.609100 35.288250 39.996220 33.498050
585 78.384500 68.797100 68.537700 46.620960 45.916810 46.788600
586 92.113500 80.000700 81.173200 67.049660 65.318050 67.732170
587 19.039500 5.4444000 53.047500 5.8451680 2.7812600 22.993930
588 26.339500 16.890900 100.00000 21.602810 10.596200 96.139260
END_DATA
CAL    

DESCRIPTOR "Argyll Device Calibration State"
ORIGINATOR "Argyll dispread"
CREATED "Mon Sep 28 22:28:22 2020"
DEVICE_CLASS "DISPLAY"
COLOR_REP "RGB"

BEGIN_ARGYLL_DISPCAL_ARGS
-v2 -ql -m -w0.3127,0.329 -gs -f1.0 -k0 -A4.0 -d1 -c1 -yn -P0.499094202899,0.496212121212,1.24580152672
END_ARGYLL_DISPCAL_ARGS


NUMBER_OF_FIELDS 4
BEGIN_DATA_FORMAT
RGB_I RGB_R RGB_G RGB_B
END_DATA_FORMAT

NUMBER_OF_SETS 256
BEGIN_DATA
0.00000000 0.00000000 0.00000000 0.00000000
0.00392157 0.00907472 0.00906878 0.00900743
0.00784314 0.01726700 0.01722060 0.01714280
0.01176470 0.02469950 0.02458780 0.02452680
0.01568630 0.03147330 0.03127860 0.03125910
0.01960780 0.03767050 0.03738450 0.03742200
0.02352940 0.04335240 0.04299410 0.04308460
0.02745100 0.04858890 0.04819320 0.04832150
0.03137250 0.05346190 0.05306240 0.05321470
0.03529410 0.05803410 0.05765990 0.05782900
0.03921570 0.06235300 0.06202960 0.06220900
0.04313730 0.06646280 0.06621260 0.06639910
0.04705880 0.07041110 0.07024910 0.07044050
0.05098040 0.07423750 0.07417450 0.07437150
0.05490200 0.07797410 0.07801610 0.07822150
0.05882350 0.08165240 0.08179360 0.08201190
0.06274510 0.08529190 0.08552510 0.08576290
0.06666670 0.08890040 0.08921660 0.08948440
0.07058820 0.09248900 0.09288690 0.09319460
0.07450980 0.09606060 0.09653380 0.09689230
0.07843140 0.09961890 0.10016500 0.10058500
0.08235290 0.10317800 0.10378500 0.10427500
0.08627450 0.10673300 0.10739000 0.10795600
0.09019610 0.11028700 0.11099200 0.11163700
0.09411760 0.11384900 0.11458900 0.11531900
0.09803920 0.11741000 0.11818000 0.11900000
0.10196100 0.12096800 0.12176500 0.12267700
0.10588200 0.12453200 0.12536400 0.12636100
0.10980400 0.12810600 0.12896700 0.13004200
0.11372500 0.13168100 0.13257500 0.13371800
0.11764700 0.13525700 0.13617600 0.13738000
0.12156900 0.13882300 0.13977100 0.14103200
0.12549000 0.14239500 0.14337600 0.14468700
0.12941200 0.14598000 0.14697900 0.14833400
0.13333300 0.14956700 0.15057500 0.15197200
0.13725500 0.15315900 0.15417100 0.15560700
0.14117600 0.15675500 0.15774600 0.15922300
0.14509800 0.16033600 0.16129700 0.16281900
0.14902000 0.16390800 0.16483900 0.16641000
0.15294100 0.16748600 0.16837800 0.17000000
0.15686300 0.17106900 0.17190200 0.17357300
0.16078400 0.17464100 0.17540700 0.17712600
0.16470600 0.17820200 0.17889900 0.18066600
0.16862700 0.18175500 0.18237700 0.18419000
0.17254900 0.18529400 0.18582000 0.18767500
0.17647100 0.18880400 0.18923000 0.19112500
0.18039200 0.19229200 0.19260800 0.19454000
0.18431400 0.19575600 0.19595800 0.19792500
0.18823500 0.19920900 0.19929500 0.20129400
0.19215700 0.20266200 0.20262500 0.20464900
0.19607800 0.20611000 0.20593600 0.20798000
0.20000000 0.20954300 0.20922900 0.21128700
0.20392200 0.21296200 0.21250300 0.21456800
0.20784300 0.21637000 0.21577200 0.21783900
0.21176500 0.21978600 0.21904300 0.22110700
0.21568600 0.22321400 0.22231700 0.22437000
0.21960800 0.22664200 0.22557700 0.22761400
0.22352900 0.23005800 0.22882500 0.23084300
0.22745100 0.23348200 0.23207900 0.23407100
0.23137300 0.23692500 0.23533900 0.23729800
0.23529400 0.24038200 0.23860300 0.24052000
0.23921600 0.24386000 0.24187600 0.24373800
0.24313700 0.24737500 0.24517400 0.24696600
0.24705900 0.25094100 0.24851000 0.25022200
0.25098000 0.25455100 0.25188100 0.25350900
0.25490200 0.25818600 0.25527400 0.25681800
0.25882400 0.26184600 0.25868900 0.26014800
0.26274500 0.26552800 0.26212600 0.26349800
0.26666700 0.26923300 0.26558400 0.26687000
0.27058800 0.27294400 0.26904900 0.27025300
0.27451000 0.27667200 0.27253500 0.27365200
0.27843100 0.28042000 0.27604400 0.27707600
0.28235300 0.28419400 0.27958400 0.28053000
0.28627500 0.28799100 0.28315900 0.28401700
0.29019600 0.29176900 0.28674600 0.28753000
0.29411800 0.29550900 0.29031100 0.29103300
0.29803900 0.29922300 0.29386000 0.29452100
0.30196100 0.30292700 0.29740100 0.29800400
0.30588200 0.30662900 0.30094700 0.30149400
0.30980400 0.31033100 0.30450200 0.30499300
0.31372500 0.31401200 0.30805900 0.30850400
0.31764700 0.31768100 0.31160200 0.31201100
0.32156900 0.32133800 0.31514200 0.31551600
0.32549000 0.32498600 0.31867700 0.31902200
0.32941200 0.32862700 0.32221000 0.32253100
0.33333300 0.33226600 0.32574900 0.32604500
0.33725500 0.33592200 0.32929600 0.32956900
0.34117600 0.33959600 0.33286800 0.33311000
0.34509800 0.34327200 0.33644800 0.33667700
0.34902000 0.34695000 0.34002900 0.34025300
0.35294100 0.35062800 0.34360900 0.34383600
0.35686300 0.35430600 0.34719000 0.34742700
0.36078400 0.35798100 0.35077400 0.35102700
0.36470600 0.36167500 0.35435900 0.35463800
0.36862700 0.36538800 0.35796300 0.35826200
0.37254900 0.36909900 0.36159100 0.36191800
0.37647100 0.37280400 0.36521600 0.36559800
0.38039200 0.37651600 0.36883700 0.36927700
0.38431400 0.38024100 0.37246200 0.37296200
0.38823500 0.38397100 0.37610100 0.37666100
0.39215700 0.38772100 0.37974800 0.38036800
0.39607800 0.39150800 0.38340900 0.38407900
0.40000000 0.39534500 0.38709600 0.38780700
0.40392200 0.39923400 0.39082100 0.39156200
0.40784300 0.40315700 0.39458600 0.39535200
0.41176500 0.40704900 0.39838300 0.39917600
0.41568600 0.41090100 0.40215300 0.40300200
0.41960800 0.41472200 0.40588000 0.40678100
0.42352900 0.41852400 0.40957300 0.41051200
0.42745100 0.42232000 0.41324300 0.41421100
0.43137300 0.42610700 0.41690900 0.41789400
0.43529400 0.42988900 0.42056800 0.42157700
0.43921600 0.43367800 0.42422300 0.42525500
0.44313700 0.43746600 0.42788500 0.42893300
0.44705900 0.44125700 0.43154800 0.43261200
0.45098000 0.44506200 0.43521300 0.43628700
0.45490200 0.44886400 0.43889400 0.43996400
0.45882400 0.45264700 0.44258700 0.44365500
0.46274500 0.45642200 0.44627200 0.44734400
0.46666700 0.46020200 0.44995500 0.45102000
0.47058800 0.46398600 0.45365100 0.45469600
0.47451000 0.46775000 0.45737000 0.45838900
0.47843100 0.47151100 0.46109500 0.46209500
0.48235300 0.47527200 0.46482100 0.46579600
0.48627500 0.47903200 0.46856000 0.46950200
0.49019600 0.48278900 0.47230700 0.47321400
0.49411800 0.48654600 0.47606000 0.47693100
0.49803900 0.49030100 0.47981700 0.48064900
0.50196100 0.49405500 0.48357700 0.48436900
0.50588200 0.49780700 0.48734000 0.48809000
0.50980400 0.50158100 0.49110700 0.49181200
0.51372500 0.50538100 0.49489000 0.49553500
0.51764700 0.50918200 0.49871500 0.49927800
0.52156900 0.51298500 0.50254800 0.50305700
0.52549000 0.51678800 0.50638800 0.50684000
0.52941200 0.52059400 0.51023300 0.51062500
0.53333300 0.52440000 0.51408500 0.51441400
0.53725500 0.52820700 0.51794400 0.51820600
0.54117600 0.53201600 0.52181500 0.52200200
0.54509800 0.53582700 0.52569800 0.52580400
0.54902000 0.53962300 0.52959700 0.52961200
0.55294100 0.54342700 0.53349100 0.53343100
0.55686300 0.54724700 0.53739500 0.53724500
0.56078400 0.55106100 0.54131600 0.54106700
0.56470600 0.55486700 0.54522500 0.54490100
0.56862700 0.55867800 0.54911700 0.54872100
0.57254900 0.56249600 0.55300200 0.55252300
0.57647100 0.56633400 0.55688200 0.55631600
0.58039200 0.57020600 0.56076800 0.56010900
0.58431400 0.57410200 0.56467200 0.56390900
0.58823500 0.57796900 0.56858300 0.56773000
0.59215700 0.58180200 0.57245000 0.57156800
0.59607800 0.58561400 0.57627700 0.57537900
0.60000000 0.58941900 0.58007800 0.57915500
0.60392200 0.59321400 0.58386800 0.58290800
0.60784300 0.59700200 0.58764100 0.58666100
0.61176500 0.60078600 0.59140300 0.59040900
0.61568600 0.60458000 0.59515800 0.59415400
0.61960800 0.60838000 0.59892000 0.59789900
0.62352900 0.61218400 0.60268600 0.60166000
0.62745100 0.61599400 0.60645400 0.60543200
0.63137300 0.61979300 0.61022800 0.60921300
0.63529400 0.62357200 0.61398600 0.61300200
0.63921600 0.62734000 0.61772800 0.61679300
0.64313700 0.63110100 0.62146000 0.62057100
0.64705900 0.63485400 0.62519100 0.62434400
0.65098000 0.63859400 0.62891600 0.62811300
0.65490200 0.64233300 0.63264400 0.63187400
0.65882400 0.64608700 0.63638600 0.63562300
0.66274500 0.64987800 0.64015900 0.63937600
0.66666700 0.65371700 0.64398000 0.64314000
0.67058800 0.65761500 0.64786300 0.64693900
0.67451000 0.66157300 0.65182200 0.65078900
0.67843100 0.66559500 0.65586200 0.65470700
0.68235300 0.66965600 0.65998500 0.65869900
0.68627500 0.67365400 0.66411300 0.66276600
0.69019600 0.67757300 0.66816900 0.66689000
0.69411800 0.68141400 0.67215000 0.67096600
0.69803900 0.68517800 0.67606000 0.67497500
0.70196100 0.68887900 0.67991200 0.67891500
0.70588200 0.69253500 0.68372300 0.68279500
0.70980400 0.69617000 0.68751100 0.68663200
0.71372500 0.69979500 0.69129200 0.69044500
0.71764700 0.70342000 0.69506800 0.69425400
0.72156900 0.70705300 0.69885100 0.69806400
0.72549000 0.71069000 0.70263700 0.70188300
0.72941200 0.71433100 0.70642500 0.70571000
0.73333300 0.71799200 0.71022400 0.70953500
0.73725500 0.72167100 0.71402900 0.71335900
0.74117600 0.72537300 0.71784200 0.71718300
0.74509800 0.72910200 0.72166400 0.72100500
0.74902000 0.73283600 0.72546700 0.72482800
0.75294100 0.73658300 0.72926100 0.72863500
0.75686300 0.74035900 0.73305400 0.73240800
0.76078400 0.74416500 0.73684700 0.73616400
0.76470600 0.74800300 0.74064000 0.73990200
0.76862700 0.75188800 0.74444700 0.74362600
0.77254900 0.75581100 0.74827400 0.74733700
0.77647100 0.75976800 0.75211800 0.75105900
0.78039200 0.76375600 0.75598000 0.75480000
0.78431400 0.76776800 0.75985500 0.75856000
0.78823500 0.77180200 0.76374400 0.76234000
0.79215700 0.77583000 0.76762600 0.76614300
0.79607800 0.77985700 0.77150500 0.76996300
0.80000000 0.78389400 0.77538900 0.77378700
0.80392200 0.78794000 0.77928100 0.77762400
0.80784300 0.79202400 0.78320200 0.78148300
0.81176500 0.79616100 0.78716700 0.78536900
0.81568600 0.80035600 0.79118200 0.78930600
0.81960800 0.80455600 0.79521400 0.79330400
0.82352900 0.80870800 0.79920200 0.79736700
0.82745100 0.81281500 0.80314600 0.80144900
0.83137300 0.81690200 0.80706800 0.80549700
0.83529400 0.82098400 0.81098200 0.80951600
0.83921600 0.82507500 0.81490800 0.81352500
0.84313700 0.82916800 0.81884400 0.81754100
0.84705900 0.83326400 0.82278900 0.82158400
0.85098000 0.83736700 0.82674500 0.82564500
0.85490200 0.84147500 0.83071800 0.82972400
0.85882400 0.84558100 0.83470700 0.83382800
0.86274500 0.84969600 0.83871200 0.83795600
0.86666700 0.85385000 0.84275100 0.84210700
0.87058800 0.85804700 0.84683800 0.84628200
0.87451000 0.86223600 0.85095900 0.85050700
0.87843100 0.86638900 0.85505700 0.85479200
0.88235300 0.87053000 0.85913700 0.85909200
0.88627500 0.87467600 0.86322400 0.86337900
0.89019600 0.87883300 0.86731800 0.86767400
0.89411800 0.88300700 0.87143300 0.87199200
0.89803900 0.88720800 0.87557100 0.87633300
0.90196100 0.89143300 0.87974200 0.88069600
0.90588200 0.89564900 0.88393100 0.88509300
0.90980400 0.89985900 0.88812400 0.88951800
0.91372500 0.90407900 0.89233100 0.89394500
0.91764700 0.90832800 0.89656900 0.89838600
0.92156900 0.91260000 0.90085000 0.90285600
0.92549000 0.91687300 0.90514100 0.90736500
0.92941200 0.92116600 0.90944000 0.91188000
0.93333300 0.92548300 0.91377100 0.91639800
0.93725500 0.92978900 0.91811400 0.92095200
0.94117600 0.93410800 0.92246400 0.92552000
0.94509800 0.93842900 0.92683700 0.93011200
0.94902000 0.94276000 0.93121300 0.93472900
0.95294100 0.94710200 0.93560200 0.93936700
0.95686300 0.95145800 0.94000300 0.94402700
0.96078400 0.95582700 0.94441700 0.94870500
0.96470600 0.96020600 0.94884100 0.95340400
0.96862700 0.96459700 0.95327900 0.95812500
0.97254900 0.96900100 0.95773300 0.96286400
0.97647100 0.97341300 0.96220600 0.96762400
0.98039200 0.97783200 0.96670000 0.97240400
0.98431400 0.98225700 0.97121400 0.97720500
0.98823500 0.98669000 0.97574900 0.98202800
0.99215700 0.99113000 0.98030500 0.98687200
0.99607800 0.99557800 0.98488200 0.99173800
1.00000000 1.00000000 0.98948100 0.99662500
END_DATA
