CTI3   

DESCRIPTOR "Argyll Calibration Target chart information 3"
ORIGINATOR "Argyll dispread"
CREATED "Tue Feb 09 09:17:15 2021"
DEVICE_CLASS "DISPLAY"
SINGLE_DIM_STEPS "21"
COMP_GREY_STEPS "61"
DARK_REGION_EMPHASIS "1.6"
COLOR_REP "RGB_XYZ"
TARGET_INSTRUMENT "X-Rite i1 DisplayPro, ColorMunki Display"
DISPLAY_TYPE_REFRESH "NO"
DISPLAY_TYPE_BASE_ID "1"
INSTRUMENT_TYPE_SPECTRAL "NO"
LUMINANCE_XYZ_CDM2 "211.597419 221.739138 245.743979"
NORMALIZED_TO_Y_100 "YES"
VIDEO_LUT_CALIBRATION_POSSIBLE "YES"

BEGIN_ARGYLL_COLPROF_ARGS
-v -qh -aX -bn -C "No copyright. Created with DisplayCAL 3.8.9.3 and ArgyllCMS 2.1.2" -M "KOIOS K2418U"
END_ARGYLL_COLPROF_ARGS

OBSERVER "1931_2"
USE_BLACK_POINT_COMPENSATION "NO"
BLACK_POINT_CORRECTION "0.0"
HIRES_B2A "YES"
HIRES_B2A_SIZE "-1"
SMOOTH_B2A "YES"
PATCH_SEQUENCE "OPTIMIZE_DISPLAY_RESPONSE_DELAY"

NUMBER_OF_FIELDS 7
BEGIN_DATA_FORMAT
SAMPLE_ID RGB_R RGB_G RGB_B XYZ_X XYZ_Y XYZ_Z
END_DATA_FORMAT

NUMBER_OF_SETS 588
BEGIN_DATA
1 100.0000 100.0000 100.0000 95.42628 100.0000 110.8257
2 1.960800 1.960800 1.960800 0.520082 0.535746 0.668519
3 3.921600 3.921600 3.921600 0.674962 0.699603 0.844275
4 5.882400 5.882400 5.882400 0.805224 0.834343 0.998133
5 9.803900 9.803900 9.803900 1.275246 1.328203 1.541182
6 13.72600 13.72600 13.72600 1.930378 2.012876 2.292449
7 17.64700 17.64700 17.64700 2.748319 2.868081 3.250920
8 21.56900 21.56900 21.56900 3.784985 3.960089 4.469218
9 25.49000 25.49000 25.49000 5.240686 5.477790 6.201063
10 29.41200 29.41200 29.41200 6.958456 7.275245 8.193203
11 33.33300 33.33300 33.33300 8.955774 9.406883 10.35365
12 37.25500 37.25500 37.25500 11.10668 11.65770 12.84657
13 41.17600 41.17600 41.17600 13.56336 14.22726 15.67089
14 45.09800 45.09800 45.09800 16.49217 17.34906 18.82619
15 49.02000 49.02000 49.02000 19.57239 20.59513 22.61680
16 52.94100 52.94100 52.94100 23.10863 24.28226 26.23588
17 56.86300 56.86300 56.86300 26.98430 28.29984 30.97308
18 60.78400 60.78400 60.78400 31.09963 32.60066 35.79736
19 64.70600 64.70600 64.70600 35.77074 37.38974 41.48115
20 68.62700 68.62700 68.62700 40.95383 42.82709 47.16801
21 72.54900 72.54900 72.54900 46.14078 48.23122 52.94023
22 76.47100 76.47100 76.47100 51.81586 54.24610 59.48908
23 80.39200 80.39200 80.39200 57.70040 60.50119 66.55465
24 84.31400 84.31400 84.31400 64.17891 67.31587 73.70651
25 88.23500 88.23500 88.23500 71.11798 74.78437 82.06606
26 92.15700 92.15700 92.15700 78.96979 82.82618 91.19511
27 96.07800 96.07800 96.07800 87.06868 91.54485 101.2776
28 27.35070 44.61710 77.89350 19.70113 16.82906 63.44749
29 63.07900 56.56300 77.16970 34.87845 30.44582 60.44443
30 0.000000 76.99180 43.40470 23.71450 43.94369 20.38828
31 0.000000 76.29270 70.91880 29.32976 44.61261 53.31082
32 0.000000 100.0000 88.82860 52.54264 82.34457 89.15821
33 0.000000 100.0000 100.0000 57.48427 83.40270 116.7838
34 0.000000 84.59920 100.0000 45.52607 58.08316 115.6841
35 27.49970 90.33590 100.0000 50.71998 66.70401 114.5497
36 62.86980 92.11740 100.0000 62.67730 74.40685 112.6107
37 78.02620 100.0000 100.0000 77.56682 91.65674 112.2443
38 0.000000 19.18110 72.95880 11.38972 5.278236 55.32406
39 0.000000 33.40250 73.88680 13.73646 9.915291 56.65169
40 0.000000 38.30780 100.0000 25.68353 15.06743 116.2933
41 0.000000 53.67640 100.0000 30.05808 24.73167 115.6174
42 0.000000 69.10910 100.0000 36.48178 38.62086 115.4097
43 33.99250 70.92890 100.0000 40.09901 41.70341 113.6921
44 0.000000 55.83160 57.93670 16.04287 22.67517 34.03276
45 40.97610 66.15720 62.67420 26.25598 34.51685 39.21796
46 40.54050 0.000000 0.000000 6.601997 3.530840 0.493827
47 45.77470 0.000000 0.000000 8.407495 4.444201 0.493874
48 51.47060 0.000000 0.000000 10.71552 5.614551 0.493579
49 57.69230 0.000000 0.000000 13.63991 7.094987 0.503042
50 61.15440 0.000000 0.000000 15.62348 8.100629 0.502485
51 64.51610 0.000000 0.000000 17.57299 9.087891 0.510383
52 70.60140 32.70290 34.86110 24.82685 16.86548 10.81175
53 32.75730 13.63820 0.000000 4.863031 3.535953 0.579735
54 53.32510 19.87340 0.000000 12.37692 8.098760 0.664793
55 54.24700 0.000000 14.50880 12.10842 6.247000 2.150956
56 76.33260 0.000000 30.95150 26.29151 13.16944 8.607304
57 100.0000 0.000000 55.23880 50.94592 24.87981 28.30788
58 100.0000 0.000000 69.03180 54.04860 25.71566 46.78718
59 100.0000 33.28970 82.66860 59.43637 31.71719 69.17514
60 74.77030 64.45850 0.000000 36.03943 39.52633 3.022483
61 78.09330 80.59840 0.000000 46.81485 59.30971 4.768769
62 78.64950 100.0000 0.000000 61.73086 90.43199 7.660686
63 84.31110 100.0000 26.19140 65.92643 91.62255 11.54603
64 0.000000 31.25000 0.000000 3.404245 6.793617 1.055498
65 0.000000 35.71430 0.000000 4.332526 8.701494 1.224726
66 0.000000 40.54050 0.000000 5.468893 11.12640 1.444393
67 0.000000 45.77470 0.000000 7.072269 14.45865 1.743347
68 0.000000 51.47060 0.000000 9.058166 18.58183 2.114413
69 0.000000 57.69230 0.000000 11.50252 23.66459 2.580559
70 0.000000 64.51610 0.000000 14.67054 30.31388 3.185964
71 0.000000 72.03390 0.000000 18.53055 38.37643 3.926243
72 0.000000 80.35710 0.000000 23.53850 48.81174 4.884627
73 0.000000 89.62260 0.000000 30.71859 63.86092 6.277173
74 36.83750 100.0000 87.94570 54.91163 82.81991 85.27316
75 43.86390 100.0000 100.0000 61.86483 84.58783 114.7654
76 0.000000 0.000000 4.807700 0.468907 0.431935 0.892972
77 0.000000 0.000000 7.425700 0.521979 0.444633 1.194928
78 0.000000 0.000000 10.20410 0.597368 0.463676 1.626531
79 0.000000 0.000000 13.15790 0.708536 0.495068 2.229462
80 0.000000 0.000000 16.30430 0.844769 0.529441 2.995925
81 0.000000 0.000000 19.66290 1.011490 0.576601 3.927016
82 0.000000 0.000000 23.25580 1.268596 0.645390 5.342749
83 0.000000 0.000000 27.10840 1.628487 0.746463 7.308241
84 0.000000 0.000000 31.25000 2.118096 0.883785 9.979835
85 0.000000 0.000000 35.71430 2.629116 1.027938 12.77222
86 0.000000 0.000000 40.54050 3.233791 1.202717 16.07149
87 0.000000 0.000000 45.77470 4.113405 1.450554 20.83111
88 0.000000 0.000000 51.47060 5.081753 1.729130 26.13482
89 0.000000 0.000000 57.69230 6.549829 2.152904 34.09023
90 0.000000 0.000000 64.51610 8.344173 2.666164 43.84201
91 0.000000 0.000000 72.03390 10.40749 3.263482 55.04811
92 0.000000 0.000000 80.35710 13.32797 4.095287 70.87321
93 0.000000 0.000000 89.62260 17.36927 5.245542 92.77172
94 31.99180 0.000000 100.0000 25.22991 8.182785 117.4702
95 80.61940 0.000000 100.0000 47.70798 19.74670 114.1495
96 0.000000 2.336400 0.000000 0.449591 0.509137 0.540278
97 2.336400 2.336400 2.336400 0.522412 0.537532 0.673538
98 3.144700 3.144700 3.144700 0.598563 0.618360 0.759377
99 3.968300 3.968300 3.968300 0.678051 0.702085 0.851125
100 4.807700 4.807700 4.807700 0.720900 0.748082 0.900377
101 5.663400 5.663400 5.663400 0.810027 0.838041 1.005783
102 6.535900 6.535900 6.535900 0.914611 0.948360 1.133009
103 7.425700 7.425700 7.425700 0.986635 1.049319 1.184008
104 8.333300 8.333300 8.333300 1.085574 1.126968 1.326635
105 9.259300 9.259300 9.259300 1.233398 1.312051 1.472182
106 10.20410 10.20410 10.20410 1.352809 1.407880 1.628339
107 11.16840 11.16840 11.16840 1.483641 1.539310 1.782154
108 12.15280 12.15280 12.15280 1.617538 1.683657 1.936245
109 13.15790 13.15790 13.15790 1.848948 1.926996 2.210698
110 14.18440 14.18440 14.18440 1.978314 2.076880 2.288324
111 15.23300 15.23300 15.23300 2.210051 2.342207 2.588145
112 16.30430 16.30430 16.30430 2.460798 2.569742 2.927727
113 17.39930 17.39930 17.39930 2.652351 2.765397 3.158794
114 18.51850 18.51850 18.51850 2.942150 3.093171 3.386599
115 19.66290 19.66290 19.66290 3.219775 3.403000 3.774193
116 20.83330 20.83330 20.83330 3.555123 3.710821 4.212386
117 22.03070 22.03070 22.03070 3.934190 4.107312 4.665302
118 23.25580 23.25580 23.25580 4.357292 4.547669 5.179265
119 24.50980 24.50980 24.50980 4.793740 5.004982 5.680918
120 25.79360 25.79360 25.79360 5.427580 5.666914 6.424630
121 27.10840 27.10840 27.10840 5.913852 6.171448 6.992534
122 28.45530 28.45530 28.45530 6.626487 6.941834 7.862274
123 29.83540 29.83540 29.83540 7.169985 7.487846 8.491918
124 31.25000 31.25000 31.25000 8.014490 8.357289 9.471338
125 32.70040 32.70040 32.70040 8.540442 8.976048 9.927985
126 34.18800 34.18800 34.18800 9.360046 9.745953 10.99733
127 35.71430 35.71430 35.71430 10.23820 10.70323 12.13077
128 37.28070 37.28070 37.28070 11.17945 11.70447 12.99145
129 38.88890 38.88890 38.88890 12.25393 12.84299 14.21204
130 40.54050 40.54050 40.54050 13.17592 13.74389 15.18287
131 42.23740 42.23740 42.23740 14.53878 15.23813 16.90257
132 43.98150 43.98150 43.98150 15.75545 16.52819 18.33520
133 45.77470 45.77470 45.77470 17.01817 17.83372 19.79484
134 47.61910 47.61910 47.61910 18.36785 19.22252 21.34026
135 49.51690 49.51690 49.51690 20.03568 21.04317 22.88807
136 51.47060 51.47060 51.47060 21.82275 22.93416 24.86378
137 53.48260 53.48260 53.48260 23.61367 24.79203 26.92457
138 55.55560 55.55560 55.55560 25.96506 27.18932 29.92864
139 57.69230 57.69230 57.69230 27.94802 29.21432 32.24642
140 59.89580 59.89580 59.89580 30.42538 31.82911 35.25222
141 62.16930 62.16930 62.16930 33.08064 34.62455 38.25832
142 64.51610 64.51610 64.51610 35.96023 37.57418 41.86354
143 66.93990 66.93990 66.93990 39.14136 40.93057 44.95673
144 69.44440 69.44440 69.44440 42.07548 43.92919 48.56194
145 72.03390 72.03390 72.03390 45.91434 47.92786 52.85577
146 74.71260 74.71260 74.71260 49.59865 51.91815 57.23752
147 77.48540 77.48540 77.48540 53.78642 56.36026 62.30483
148 80.35710 80.35710 80.35710 57.97557 60.73064 67.19949
149 83.33330 83.33330 83.33330 62.27793 65.26031 71.66657
150 86.41970 86.41970 86.41970 67.70507 71.11221 78.19563
151 89.62260 89.62260 89.62260 74.41706 78.00780 86.00817
152 92.94870 92.94870 92.94870 80.81611 84.64321 93.82114
153 96.40520 96.40520 96.40520 88.22483 92.59185 102.8406
154 80.35710 0.000000 0.000000 28.07405 14.40914 0.538403
155 100.0000 27.35150 0.000000 48.16930 27.62500 0.934667
156 100.0000 46.42150 0.000000 51.78841 36.12969 1.737704
157 100.0000 55.72190 39.57200 56.02226 42.61480 13.91624
158 100.0000 62.00860 55.96240 60.58496 48.07474 29.40727
159 50.43060 24.01730 28.66600 12.61803 8.652304 7.520486
160 60.55620 54.18350 31.28950 24.34113 26.49637 9.808449
161 0.000000 100.0000 0.000000 39.13722 81.39949 7.923776
162 34.64410 100.0000 0.000000 42.10300 81.91000 7.789942
163 58.72750 100.0000 0.000000 50.36987 85.47093 7.734302
164 100.0000 100.0000 0.000000 80.64895 99.43728 7.699430
165 0.000000 34.27100 35.80580 5.918676 8.202037 12.72158
166 0.000000 60.16710 45.79910 15.65266 26.20851 21.32776
167 65.83800 73.69850 57.95300 39.60142 47.39788 33.31651
168 9.484600 18.97610 11.32450 1.956420 2.776034 1.856508
169 30.53720 23.58190 18.48110 5.570660 5.313260 3.359216
170 36.46340 69.50070 56.45650 25.50181 37.07860 32.07315
171 50.77620 87.87780 72.90040 44.62693 63.30213 55.87641
172 85.43450 93.13220 100.0000 77.74332 82.42196 112.4292
173 10.20410 0.000000 0.000000 0.834612 0.627271 0.523384
174 13.15790 0.000000 0.000000 1.073611 0.748657 0.522733
175 16.30430 0.000000 0.000000 1.372919 0.896994 0.512340
176 37.13000 79.52700 0.000000 26.98802 48.97181 4.692218
177 50.86530 100.0000 35.27810 47.93589 83.36312 16.53995
178 100.0000 100.0000 33.84510 80.87251 98.54927 14.76481
179 36.08670 37.35160 0.000000 9.079990 11.43334 1.242336
180 50.36480 49.58020 13.28260 17.28311 20.85702 3.153721
181 54.75980 55.06450 100.0000 40.04671 29.89925 113.7516
182 58.38570 67.82770 100.0000 46.70399 42.19274 113.3422
183 19.66290 0.000000 0.000000 1.728927 1.075526 0.517807
184 35.58920 0.000000 14.34720 5.363482 2.828178 2.260155
185 60.23650 0.000000 35.55240 16.98609 8.316012 11.92700
186 72.56530 26.85920 48.78680 27.25311 15.90431 21.74857
187 100.0000 31.51120 51.82980 51.89144 29.38413 23.91234
188 0.000000 0.000000 0.000000 0.414793 0.423384 0.546096
189 0.000000 73.49460 80.68820 30.95092 42.05176 71.07005
190 48.16900 82.62430 100.0000 50.62144 57.78598 114.4013
191 100.0000 100.0000 100.0000 96.11383 100.5907 112.1107
192 80.87160 48.87000 0.000000 34.57268 29.14373 1.878379
193 100.0000 79.56640 0.000000 66.02628 67.38799 4.677112
194 100.0000 88.90100 76.52900 79.55939 81.00597 60.18211
195 23.21360 11.88300 28.31580 3.848788 2.526387 7.659364
196 39.60560 22.00910 32.75140 8.908284 6.288083 10.05778
197 57.41960 35.35320 61.96550 22.47986 15.36661 37.58262
198 0.000000 13.75850 28.62200 2.330910 1.977237 8.183384
199 0.000000 16.35140 48.93070 5.385143 3.164547 23.92591
200 28.75020 24.52930 49.30380 8.718157 6.256328 23.24124
201 35.57640 35.86180 67.47930 16.20894 12.08364 46.45118
202 55.76820 40.88110 100.0000 36.31906 20.93624 114.0009
203 78.81100 66.79620 100.0000 57.82820 46.63163 112.2181
204 83.10670 81.24470 100.0000 68.10194 64.26029 112.1858
205 0.000000 0.000000 2.336400 0.435922 0.429224 0.679521
206 0.764500 0.764500 0.764500 0.437361 0.449568 0.573060
207 1.543200 1.543200 1.543200 0.495238 0.509861 0.641908
208 23.25580 0.000000 0.000000 2.276902 1.350980 0.510088
209 28.70920 22.17970 0.000000 4.626133 4.755921 0.734566
210 29.37880 32.42120 10.32060 6.570244 8.504760 1.951301
211 29.42010 70.57160 38.37370 21.78349 37.13180 15.66027
212 48.81570 100.0000 76.02780 54.50404 83.74902 62.83977
213 73.25180 100.0000 82.21040 68.26228 89.39992 72.66632
214 0.000000 27.10840 0.000000 2.608862 5.066799 0.914231
215 30.54230 59.58800 0.000000 15.15734 26.57008 2.694089
216 100.0000 63.54750 0.000000 58.04582 49.84580 3.026685
217 100.0000 71.33480 25.17100 61.74394 57.48196 7.575515
218 100.0000 71.00520 47.59310 63.44037 57.15079 21.20253
219 58.74520 48.76670 0.000000 20.89202 22.34855 1.849750
220 77.77850 50.39180 100.0000 51.06806 32.53931 112.6847
221 58.08860 0.000000 100.0000 34.24305 12.81345 116.7245
222 58.65690 24.53910 100.0000 35.25451 15.57013 114.8698
223 0.000000 0.000000 0.000000 0.415441 0.423908 0.547506
224 27.10840 0.000000 0.000000 3.030172 1.727957 0.505706
225 31.25000 0.000000 0.000000 4.040520 2.236561 0.498774
226 35.71430 0.000000 0.000000 5.130295 2.788215 0.499751
227 79.52490 0.000000 46.25740 30.52511 14.86445 19.79550
228 81.02790 0.000000 61.17770 34.50837 16.19229 36.72687
229 0.000000 4.807700 0.000000 0.527703 0.674731 0.549908
230 0.000000 0.000000 100.0000 22.56764 6.722581 120.9146
231 0.000000 22.16000 100.0000 23.37313 9.181127 118.9724
232 21.56640 0.000000 25.81400 3.030885 1.477802 6.529043
233 40.09480 0.000000 31.54290 7.954539 3.841456 9.510083
234 44.01930 0.000000 50.92660 11.93689 5.232498 25.06036
235 52.37890 0.000000 73.99870 21.10016 8.563827 57.45914
236 74.19270 0.000000 82.65480 35.91904 15.46305 72.77568
237 100.0000 0.000000 100.0000 66.00454 29.05075 113.8546
238 100.0000 28.00430 100.0000 66.41099 31.97376 112.0120
239 0.000000 19.66290 0.000000 1.549904 2.841822 0.723225
240 0.000000 23.25580 0.000000 1.966517 3.715499 0.796083
241 0.000000 61.30310 78.90780 24.23876 28.99638 66.92511
242 66.04370 80.81510 100.0000 57.22023 58.87009 113.6330
243 100.0000 100.0000 100.0000 96.30189 100.7438 112.5390
244 0.000000 13.15790 0.000000 0.962583 1.601988 0.624137
245 0.000000 16.30430 0.000000 1.205912 2.114574 0.660560
246 27.39670 36.33800 42.53010 9.528284 10.51340 17.21518
247 27.97820 43.21220 43.97300 11.53649 14.21044 18.87502
248 40.53860 51.54720 49.90590 17.86180 21.22989 23.78153
249 44.79060 55.31640 61.57380 23.00300 25.28167 37.91263
250 0.000000 7.425700 0.000000 0.646211 0.925524 0.577807
251 0.000000 10.20410 0.000000 0.770283 1.192567 0.593554
252 0.000000 14.31250 17.09310 1.476208 1.819826 3.264506
253 0.000000 25.13520 17.87300 2.717161 4.416557 3.510683
254 100.0000 84.04200 41.54570 69.85444 72.90654 17.51236
255 100.0000 84.93360 59.28930 73.04628 74.59031 34.54753
256 100.0000 85.80630 87.11940 80.86361 77.07383 80.32293
257 100.0000 70.28470 85.35460 71.60726 57.58499 75.85168
258 100.0000 76.55110 100.0000 80.77583 66.08823 111.4227
259 100.0000 88.49740 100.0000 87.91754 82.13535 111.7546
260 0.000000 76.06910 25.76400 21.71682 43.33813 9.475362
261 0.000000 100.0000 25.63950 39.67993 81.02003 12.41381
262 0.000000 100.0000 45.27830 41.60239 81.06333 24.42382
263 0.000000 100.0000 61.40220 44.66882 81.34496 42.55154
264 0.000000 100.0000 75.53440 48.41507 82.01614 64.27509
265 0.000000 39.97070 20.47250 5.968875 10.98693 4.761244
266 32.92170 42.91740 20.37880 10.17774 14.06745 4.578981
267 47.22130 59.38050 37.39970 21.10262 28.09182 13.78505
268 63.80320 90.94480 37.16100 47.07118 71.24790 16.25886
269 100.0000 100.0000 55.56280 83.54147 98.85849 32.39500
270 100.0000 100.0000 71.82340 86.83589 99.22308 54.03460
271 100.0000 100.0000 88.90500 91.85866 100.0130 85.33981
272 28.19880 47.76940 100.0000 30.19884 21.26230 116.1569
273 100.0000 47.06050 100.0000 69.67515 40.12926 111.4991
274 35.62510 9.645500 41.13430 7.950118 4.016711 16.11264
275 48.48740 27.75720 48.07580 14.83596 10.06977 22.09756
276 100.0000 32.30310 66.44620 55.19660 30.45394 42.56389
277 100.0000 52.02620 79.95270 63.25842 41.69070 64.91322
278 100.0000 62.71180 100.0000 74.55341 51.72238 111.4479
279 55.95410 100.0000 54.33010 52.60230 84.56145 32.37082
280 72.98910 100.0000 65.00080 63.66340 88.82696 45.21508
281 49.85530 57.94740 0.000000 20.34622 27.78283 2.539040
282 51.94640 60.27520 28.20460 22.76659 30.05847 8.707544
283 28.45330 0.000000 57.51470 9.281795 3.531932 33.98592
284 32.27410 24.44100 70.61500 14.54753 7.854271 51.89077
285 60.19410 66.30620 74.58280 37.11175 38.98658 57.46833
286 75.70470 27.54030 0.000000 26.17494 16.63387 0.884183
287 87.43230 39.65220 12.69270 37.71282 26.13345 2.386320
288 72.03390 0.000000 0.000000 22.54990 11.61477 0.532007
289 77.21100 0.000000 17.72820 26.11781 13.32202 2.934399
290 100.0000 27.21160 21.19420 48.45032 27.45580 3.912907
291 100.0000 43.65130 23.43100 51.58898 34.58202 5.197805
292 100.0000 45.45790 44.08740 53.66285 35.70116 17.22054
293 0.000000 26.01510 36.23740 4.491810 5.063968 12.77043
294 0.000000 42.97740 55.33000 11.48729 13.91999 31.04128
295 67.41950 57.82050 64.72540 35.08046 32.30658 41.95990
296 89.62260 0.000000 0.000000 36.72683 18.80554 0.575354
297 100.0000 0.000000 0.000000 47.23489 24.12319 0.611929
298 100.0000 0.000000 14.93310 47.27124 24.07905 2.169387
299 100.0000 0.000000 28.75720 47.93930 24.21815 7.184757
300 100.0000 0.000000 42.18340 49.29289 24.52826 16.10166
301 4.807700 0.000000 0.000000 0.549731 0.487888 0.534331
302 7.425700 0.000000 0.000000 0.667023 0.547434 0.532188
303 44.07130 29.70390 0.000000 10.07191 9.375302 0.945826
304 61.87070 37.19950 0.000000 19.64960 16.57059 1.241849
305 84.13880 56.55890 45.34160 42.28834 36.15115 19.11620
306 38.83280 30.43430 19.05990 8.928662 8.870270 3.740464
307 61.36380 30.10100 70.99940 26.01839 15.00462 51.49265
308 85.14980 73.47100 72.80050 55.91183 54.02544 54.17663
309 74.81570 16.77630 39.54880 26.60653 14.17636 13.94380
310 88.81800 15.03890 39.91520 37.67238 19.54294 14.01322
311 90.90060 17.94500 52.39930 41.64819 21.43630 25.30676
312 100.0000 52.46770 63.41380 59.20518 41.15803 39.33987
313 13.07650 24.31580 25.17370 3.587741 4.441511 6.227877
314 12.83070 31.11230 36.36110 5.906520 7.191884 12.91798
315 15.36450 34.18160 51.08480 8.847367 9.000103 25.42804
316 21.60760 42.70040 53.61680 12.17008 13.91859 28.80244
317 31.77850 54.67030 58.25000 18.63683 23.00596 34.42718
318 59.50720 58.28380 43.31340 26.98435 30.11991 18.04902
319 62.60200 68.71070 44.69760 33.29244 40.77853 19.58866
320 84.37710 75.76950 46.99470 51.33013 55.58394 21.70424
321 14.88610 13.17020 24.20200 2.595175 2.138909 5.827450
322 18.24650 13.78070 41.68910 4.981668 2.901266 16.88550
323 88.39810 36.52160 40.93450 39.43943 25.17653 14.66640
324 73.01420 45.80480 26.76160 28.98992 24.33674 6.906969
325 87.69100 46.60630 35.35550 40.90446 30.27675 11.39035
326 16.82970 50.22370 24.09970 10.07668 17.93742 6.497558
327 15.67590 63.02740 53.63920 19.05050 29.57422 29.64593
328 37.88280 83.58800 54.06740 33.78194 54.78040 30.78694
329 57.39030 91.37820 63.52770 48.40769 70.86332 43.00389
330 63.07550 100.0000 91.90590 66.28611 87.75469 94.86700
331 0.000000 43.29910 34.91160 8.234382 13.22813 12.52546
332 11.52340 46.39750 65.39580 15.12370 16.38570 44.74022
333 10.04200 56.12190 65.39110 18.48088 23.70595 44.89758
334 22.52640 64.16340 85.58010 29.09080 32.82538 80.28553
335 68.85780 70.68660 10.60510 35.75892 44.47733 4.334008
336 69.86840 78.49040 27.40030 41.04315 53.99269 9.598518
337 69.51550 78.62970 41.98410 42.22385 54.32177 18.13690
338 17.32730 23.60080 0.000000 2.990161 4.263279 0.784250
339 18.96440 33.59840 31.31700 6.337522 8.321675 9.787297
340 52.87480 44.08610 55.15100 21.21847 18.66298 29.77226
341 65.45730 50.76340 66.40660 31.81580 26.49813 44.05490
342 0.000000 0.000000 0.000000 0.417408 0.425844 0.551483
343 3.895500 20.32420 41.53230 4.585675 3.644330 17.02880
344 0.000000 18.69510 85.75180 16.45133 6.618298 83.12393
345 4.658800 35.22330 86.47240 19.12894 12.04646 83.94555
346 2.417700 43.82630 86.49760 21.26930 16.73975 83.90597
347 88.45470 13.04340 17.79990 35.99515 18.98483 2.892210
348 100.0000 26.47220 35.87880 49.48008 27.51216 11.14653
349 100.0000 100.0000 100.0000 96.64957 101.0296 113.1384
350 55.05520 44.48420 47.77170 20.92664 19.10943 21.81347
351 59.69200 54.87590 48.13160 26.36630 27.38653 22.38360
352 70.69920 59.80830 58.08500 36.19946 34.83471 32.98603
353 72.96650 68.06430 77.77110 46.51366 44.71933 62.99182
354 32.36380 10.47350 26.11480 5.592407 3.314775 6.585735
355 32.23460 8.270700 70.02850 13.39160 5.212268 51.52123
356 32.29060 0.000000 78.96540 16.10178 5.643710 67.34282
357 45.73230 13.55090 87.64670 23.72262 9.449916 85.54581
358 66.82060 14.64280 88.70280 34.14188 14.70510 87.01749
359 86.26210 16.61220 86.99840 46.81721 21.46777 82.30909
360 91.17740 55.22650 85.58760 57.43156 40.17228 76.71867
361 6.424500 10.11320 17.58400 1.437180 1.377399 3.356991
362 10.85460 9.919200 49.44710 5.447222 2.455069 24.25587
363 18.81870 12.48560 60.15410 8.616124 3.752070 37.17095
364 18.40650 15.42980 73.54850 12.55517 5.194603 58.13316
365 40.84820 39.80140 88.76990 25.69365 16.44816 87.17598
366 46.82240 53.02340 87.69970 30.96352 25.71705 84.93704
367 78.73030 89.45470 90.47480 66.92918 74.24465 90.51622
368 66.13160 23.84780 4.979700 20.01283 12.70052 1.062425
369 75.14500 41.00240 11.10000 28.63769 22.41912 2.289127
370 76.84960 56.70060 11.93770 34.79330 33.79736 3.269325
371 89.70090 67.42190 10.30340 49.66417 48.86622 3.970305
372 94.40600 71.09330 36.87710 56.78207 54.48336 13.54571
373 93.50830 90.01260 83.65140 76.17149 80.22132 73.41961
374 57.52530 73.92450 65.26450 37.64449 46.60046 43.70359
375 65.23710 76.65120 74.60370 45.00198 51.53105 58.07268
376 74.32660 78.67210 88.47590 56.67127 57.98962 85.42897
377 35.88700 46.04450 60.59660 17.23623 17.31095 37.26695
378 42.87230 49.10110 72.50890 23.13009 21.01949 54.55193
379 43.57540 70.82050 84.06410 36.13494 41.65854 76.55511
380 63.82510 80.65620 84.77030 50.04594 57.20451 77.37494
381 69.14430 91.18310 86.03150 60.63247 74.50217 79.98919
382 17.77230 38.34300 12.15010 6.185418 10.57874 2.571361
383 52.67630 40.67130 12.53130 15.89766 16.01432 2.568296
384 58.01750 27.04800 23.16970 16.10167 11.30489 4.968351
385 63.83000 31.60340 41.34310 21.75383 14.95912 15.51139
386 82.11280 32.29270 45.13210 34.20571 21.08570 18.30102
387 89.44060 38.79910 59.00890 44.14572 27.59975 32.91434
388 36.60570 35.85210 26.74580 9.695744 10.76235 6.992349
389 49.60320 42.57710 34.45740 16.40285 16.65630 11.45786
390 73.58980 58.21890 40.83260 34.82992 33.74768 15.68428
391 69.14470 66.07070 34.00060 34.57328 39.55805 11.97942
392 89.62950 69.95320 54.77110 54.12482 51.12859 29.30027
393 100.0000 76.38060 67.45180 70.20583 64.14312 46.07157
394 47.77760 19.83460 10.74120 10.25937 6.995756 1.674107
395 54.99410 33.61670 13.40170 15.43207 13.04366 2.443858
396 66.31860 33.34640 15.68380 21.63447 16.07369 2.822048
397 75.36470 36.09590 25.34290 28.04231 19.88064 6.015653
398 85.06280 80.45430 61.37120 57.05373 62.07826 37.58162
399 85.19860 87.98550 74.46950 64.98398 72.77509 58.12404
400 10.15720 19.83530 26.87000 3.047895 3.202499 7.284590
401 16.84390 28.29870 57.26160 9.385432 7.119859 33.35896
402 16.37910 28.37460 86.48280 18.46904 9.533431 83.91342
403 29.53990 34.24290 100.0000 27.30323 14.07936 117.2804
404 10.88240 22.59790 62.14510 9.281863 5.468438 39.76082
405 24.92080 33.40680 75.37400 16.18075 10.87706 60.40157
406 71.72260 47.83980 74.78680 37.31127 27.01715 57.60698
407 18.22920 68.51980 46.47640 20.65186 35.13853 22.68696
408 50.37230 73.62790 55.50640 32.21816 44.33199 31.57807
409 85.58440 79.66620 90.86550 65.64857 62.72534 90.77079
410 50.06420 0.000000 22.74020 10.95847 5.553939 4.831621
411 69.35950 0.000000 66.40810 28.09235 12.62814 44.82157
412 100.0000 0.000000 84.00860 59.42211 27.28639 75.44323
413 28.31810 91.67720 15.89230 34.67634 67.96805 8.168760
414 48.59900 89.90370 15.85010 38.20952 66.34739 7.592920
415 65.67570 88.64470 12.92440 45.14983 68.20711 6.893497
416 85.41250 89.25990 20.16000 58.98352 75.22257 8.180653
417 82.53480 92.58580 37.31660 59.99873 79.09199 16.24207
418 81.60890 100.0000 49.96830 66.45442 91.21780 26.69986
419 29.22610 14.13440 51.01690 8.333313 4.257936 25.35622
420 39.16170 26.19430 59.72160 13.84449 8.629617 35.80164
421 47.87630 63.06720 80.39860 32.48938 33.78039 69.02199
422 61.91320 66.84360 88.40130 43.15196 41.00531 85.00752
423 11.70240 44.80740 46.82040 10.68854 14.64246 21.72358
424 17.38480 51.34240 46.54380 13.19625 19.32117 21.84955
425 16.68700 65.19490 63.73790 22.41175 32.03293 43.17754
426 26.66640 66.39420 71.42820 26.10673 34.27610 54.04350
427 47.15940 68.55990 73.21780 32.67034 38.84398 56.93391
428 50.66840 83.04860 77.46600 43.26721 57.05622 64.87720
429 53.57500 88.07740 90.40480 52.95295 66.60207 92.40140
430 30.33200 19.91830 100.0000 25.68048 9.824370 118.2622
431 23.30230 14.09620 86.03550 17.52829 6.521150 82.67729
432 43.63910 27.32870 86.23090 23.49511 11.76804 81.73143
433 64.49140 40.18450 86.63560 34.72496 21.22781 81.03297
434 80.78560 49.67370 88.31220 48.25895 32.27493 84.09706
435 59.13430 0.000000 48.29060 18.23251 8.529077 22.53396
436 65.93810 17.22420 60.12680 24.63428 12.32738 35.69875
437 91.13210 18.90720 65.74430 44.70059 22.33172 43.10218
438 77.32270 44.37760 65.11310 37.25944 26.12265 42.16549
439 90.62780 55.22850 70.01810 52.27425 38.95684 49.35089
440 13.19150 0.000000 14.15950 1.383968 0.826340 2.323154
441 17.42050 7.162200 14.70080 1.945086 1.425343 2.394296
442 20.27870 28.53180 21.22080 4.720453 6.241112 4.574102
443 27.62280 46.00310 29.09530 10.50773 15.53103 8.710380
444 27.95580 100.0000 35.43360 42.08985 81.15831 17.17289
445 15.56960 52.41110 35.87510 12.01007 19.92121 13.35567
446 35.09880 55.85980 46.73070 17.73482 23.98193 21.51562
447 53.20770 63.91560 61.44020 29.86065 34.55575 38.39212
448 73.77510 86.32720 63.49650 53.58283 66.71855 42.08373
449 31.22330 75.78190 16.53580 23.78010 43.88785 6.084344
450 51.44090 76.68140 14.60200 30.38216 47.86497 5.654401
451 93.21660 78.48300 87.06330 70.30577 64.37150 81.21375
452 24.95560 0.000000 15.35880 2.974608 1.610395 2.584896
453 45.00780 11.22370 15.94800 8.892542 5.230983 2.677123
454 61.12710 13.73030 30.03560 17.22280 9.354528 8.455124
455 67.43990 51.76620 44.22380 29.29224 27.14623 18.39229
456 71.47180 71.34440 62.94730 43.46014 47.01366 40.70755
457 88.29000 78.75120 70.49790 60.84023 61.58412 51.48564
458 90.66820 24.39890 7.545300 38.39696 21.97405 1.246399
459 89.92830 35.06930 28.30840 39.67568 25.14100 7.125796
460 90.92090 48.79420 51.99090 46.59801 33.52169 25.09130
461 27.89030 78.52020 67.76170 31.80692 47.93524 49.38625
462 31.63860 88.61100 67.24390 39.32563 63.18912 48.58479
463 31.74550 92.99240 88.80470 49.40455 71.36481 88.67889
464 81.04850 62.50580 76.44590 48.87105 41.38456 60.41423
465 84.94700 65.81400 88.44100 57.52317 46.98754 84.63112
466 19.87040 20.95740 9.345400 3.041717 3.621383 1.562546
467 25.09870 22.61970 30.81190 5.376965 4.777335 9.379889
468 32.45460 32.39630 43.43570 10.07932 9.389975 18.38777
469 61.16760 37.44900 53.32190 23.19968 16.95782 26.97068
470 2.336400 0.000000 0.000000 0.468576 0.452053 0.548307
471 15.94000 11.37030 0.000000 1.729520 1.769216 0.582420
472 14.48880 38.35450 65.26980 13.19009 12.03491 44.26815
473 25.70350 53.75690 79.48580 23.18054 23.35925 68.04647
474 45.73350 64.78900 91.33210 36.96625 36.07653 94.36137
475 75.50820 68.54630 91.16370 53.22082 47.01307 91.38250
476 36.08740 15.58580 12.35030 5.998247 4.244340 1.890800
477 41.69970 25.20870 9.608900 8.567011 7.266506 1.643124
478 41.96130 26.94740 23.17230 9.485027 8.040414 5.136325
479 42.34660 31.73550 42.01180 12.36954 10.31989 16.77174
480 52.74600 33.39340 41.89020 16.70446 12.94587 16.48868
481 53.44520 53.87450 66.02420 26.93505 26.01270 44.37851
482 25.94220 49.21220 91.34650 26.55326 21.07226 95.72552
483 26.98070 60.42200 100.0000 34.62722 31.01593 116.8530
484 11.81750 7.953500 30.07210 2.669578 1.539819 9.205908
485 53.84560 38.06040 35.95330 17.28026 15.09688 12.15428
486 70.88670 42.94790 36.05320 27.78645 22.34793 11.96284
487 70.55860 46.18800 47.01800 29.75538 24.22636 20.82165
488 69.35960 49.18970 57.51800 31.84908 26.17911 32.39288
489 22.15740 31.75100 16.91690 5.403026 7.620911 3.335719
490 45.33400 45.69170 27.70700 15.22677 17.75083 7.843205
491 44.90450 50.43740 38.93130 17.71186 21.15393 14.80127
492 42.97200 86.43870 37.32470 34.99511 59.73637 16.23887
493 65.51010 87.59650 49.85070 46.65018 65.63557 25.71582
494 58.51830 75.34790 0.000000 32.66629 47.87069 4.252460
495 89.10020 80.49100 6.207100 55.97234 63.69345 5.043940
496 100.0000 87.89400 21.53640 71.64448 79.07681 8.291602
497 52.11330 33.07320 22.66330 14.46787 12.29066 5.020094
498 57.96800 44.24980 29.13570 20.21002 19.46467 8.286265
499 78.63530 44.09890 54.40840 35.78777 25.82039 28.29839
500 86.05120 58.44410 59.40480 46.55900 38.76314 34.09350
501 40.68420 30.66830 32.67710 10.47534 9.333157 10.03461
502 49.45870 73.83400 32.97170 28.78405 43.77253 12.25362
503 51.80970 77.71670 47.53340 33.74221 49.31091 23.32484
504 64.94130 86.18760 69.40860 49.79457 64.55381 50.84741
505 75.68170 87.68130 77.94190 59.40492 69.90579 64.93201
506 8.499000 30.79150 16.74270 3.996249 6.746161 3.419656
507 16.86820 39.92960 31.44800 7.623894 11.39362 10.06752
508 31.73060 41.30310 33.07840 10.47330 13.19384 10.66438
509 41.80300 43.99550 51.88590 16.52273 16.65504 25.95352
510 0.000000 57.22460 26.01350 12.32810 23.54624 8.057736
511 100.0000 58.21710 24.84230 56.22635 44.76588 6.511110
512 58.26200 14.06890 13.17190 14.80454 8.482923 2.047045
513 67.02980 16.07360 24.96490 20.46256 11.35689 5.678432
514 75.76250 16.22780 53.69270 29.40645 14.92332 27.69864
515 55.24230 17.53530 37.61460 15.21405 8.623045 13.16516
516 61.90880 23.05160 50.09560 20.88573 11.90682 23.66433
517 77.59040 30.71070 85.42620 41.08173 21.46922 78.54001
518 80.00160 30.11430 100.0000 49.08975 23.83149 114.6256
519 0.000000 0.000000 0.000000 0.419188 0.427242 0.555903
520 44.86360 15.64970 67.60480 16.69864 7.671619 47.56945
521 83.81370 16.67580 73.06540 40.12542 19.31808 54.34913
522 87.93760 39.44570 83.57340 49.47815 28.67894 73.04750
523 59.03870 13.07460 67.28970 22.74339 10.44383 47.26647
524 62.48760 28.30290 87.81580 32.38892 16.23662 85.27018
525 62.70050 77.88510 89.56440 49.86976 54.09750 88.29592
526 0.000000 29.66690 52.59290 7.841141 7.175528 27.72686
527 0.000000 47.73200 75.57580 18.44521 18.20663 62.11853
528 8.232300 57.77910 89.76260 27.43498 27.00097 92.04055
529 20.99150 78.17730 100.0000 42.85976 50.02555 117.5608
530 20.75310 69.41070 24.55960 18.90506 35.68151 8.230747
531 17.72500 85.34470 25.61970 28.58245 56.50117 10.25181
532 24.58440 90.02340 43.86980 34.80952 64.57376 22.27938
533 15.13590 72.48450 87.27680 33.65774 41.71960 86.45033
534 35.45150 77.70750 87.07200 39.16985 49.11316 84.77612
535 16.55340 91.79100 75.83750 42.50462 68.40039 63.79387
536 17.53050 92.03760 61.64420 39.09492 68.53262 41.73584
537 35.55370 100.0000 61.90710 47.77463 82.29744 42.52004
538 18.76910 55.58620 15.13800 11.98692 22.43060 4.143154
539 42.87170 64.78070 15.70200 20.91120 32.89901 4.805018
540 57.98980 65.37170 18.88600 27.47589 36.41483 5.449642
541 65.37560 100.0000 26.53670 54.42756 86.90221 12.25657
542 24.08910 41.15970 0.000000 7.519356 12.43920 1.472734
543 38.30030 49.92540 13.66640 13.61038 19.50508 3.386007
544 67.05790 49.89740 18.21070 26.37925 25.51191 4.046363
545 85.91670 53.16380 26.59170 40.73709 34.28731 7.205476
546 26.07740 15.01690 6.638400 3.466678 2.981409 1.152012
547 29.47880 18.09430 23.80510 5.137568 4.006164 5.533326
548 34.49850 20.59760 40.18940 8.275299 5.541208 15.28248
549 50.34830 36.41530 76.00680 23.82707 15.51046 61.04814
550 25.08450 0.000000 39.16000 5.241847 2.236846 15.40085
551 48.06080 14.10120 42.08280 12.50176 6.691387 16.81496
552 48.83210 17.53180 54.61990 15.23723 7.947314 29.34085
553 71.71710 33.84750 66.73380 31.90789 19.20158 44.78796
554 85.74320 35.06500 67.13700 42.09033 24.61531 44.80890
555 42.73270 9.092600 26.64120 8.578591 4.692736 6.761815
556 83.89560 14.96850 28.60630 32.13002 17.06143 7.265433
557 78.93320 23.78800 13.01610 28.13470 16.69790 2.023747
558 92.96290 52.60690 11.03960 46.96779 37.21960 2.897891
559 41.27200 36.99470 14.20970 10.71263 11.99981 2.720629
560 44.91500 36.66290 56.41780 16.80107 13.36923 31.63642
561 55.19630 44.58520 71.70770 26.71018 20.72856 53.46381
562 64.82080 53.86570 88.24260 39.63949 30.35158 85.48217
563 19.78340 21.66630 38.59730 5.333477 4.313136 14.54735
564 18.95460 28.15600 38.39570 6.244395 6.419482 14.57762
565 29.78210 34.53880 54.26240 11.73180 10.32060 29.26293
566 29.72310 56.74430 69.25730 21.99405 25.45966 50.70139
567 35.24370 79.37660 79.71360 37.17230 50.17652 68.88304
568 53.29700 62.94060 52.63200 27.58243 33.15199 27.26147
569 73.76640 66.92050 52.61330 40.62070 42.84239 26.96777
570 100.0000 70.13230 74.09660 68.88168 57.38574 56.43453
571 23.37960 11.02720 11.71960 2.909512 2.250163 1.844163
572 36.19210 13.94600 19.50880 6.224792 4.117056 3.729880
573 73.20260 21.25190 20.43240 24.49759 14.20228 3.769885
574 84.16850 72.78930 25.85360 48.01419 52.19739 8.315821
575 83.76780 85.56650 55.12790 58.17053 68.31335 31.32699
576 35.10020 57.88690 26.42600 16.45632 25.68616 7.928326
577 36.37030 61.68380 41.94750 19.73949 29.17096 17.88676
578 83.85000 65.71670 59.84270 48.36767 44.94244 35.62669
579 85.73350 66.78040 73.11940 53.59182 47.42243 54.61541
580 0.000000 79.90060 60.41270 29.46472 49.56779 39.76461
581 14.20030 83.35640 82.14520 37.99443 55.18582 74.69701
582 15.80800 89.22580 94.01850 47.68313 65.79784 104.2961
583 66.51030 60.26230 15.34450 30.02276 33.98754 4.215159
584 80.12550 60.22550 32.43280 39.31950 37.86548 10.54484
585 87.81600 84.52220 41.31900 58.88906 68.58458 17.86456
586 88.37150 98.28180 60.54220 72.64146 91.77952 38.61366
587 87.33740 100.0000 75.18810 76.78083 94.30614 61.39086
588 88.26030 100.0000 92.56310 83.01603 95.64068 95.77213
END_DATA
CAL    

DESCRIPTOR "Argyll Device Calibration State"
ORIGINATOR "Argyll dispread"
CREATED "Tue Feb 09 09:17:15 2021"
DEVICE_CLASS "DISPLAY"
COLOR_REP "RGB"

BEGIN_ARGYLL_DISPCAL_ARGS
-v2 -ql -m -w0.3127,0.329 -gs -f1.0 -k0 -A4.0 -d2 -c1 -yn -P0.499239543726,0.498947368421,1.62416107383
END_ARGYLL_DISPCAL_ARGS


NUMBER_OF_FIELDS 4
BEGIN_DATA_FORMAT
RGB_I RGB_R RGB_G RGB_B
END_DATA_FORMAT

NUMBER_OF_SETS 256
BEGIN_DATA
0.00000000 0.00000000 0.00000000 0.00000000
0.00392157 0.00326808 0.00323060 0.00328020
0.00784314 0.00650953 0.00644414 0.00652896
0.01176470 0.00972467 0.00964076 0.00974674
0.01568630 0.01291380 0.01282060 0.01293400
0.01960780 0.01607730 0.01598380 0.01609110
0.02352940 0.01921540 0.01913040 0.01921850
0.02745100 0.02232840 0.02226070 0.02231670
0.03137250 0.02541670 0.02537460 0.02538600
0.03529410 0.02848050 0.02847250 0.02842690
0.03921570 0.03152010 0.03155430 0.03143970
0.04313730 0.03453640 0.03462030 0.03442500
0.04705880 0.03753390 0.03767190 0.03738610
0.05098040 0.04051640 0.04071340 0.04032950
0.05490200 0.04348980 0.04375290 0.04326450
0.05882350 0.04645950 0.04679070 0.04619580
0.06274510 0.04942940 0.04982680 0.04912690
0.06666670 0.05240350 0.05286530 0.05206230
0.07058820 0.05538530 0.05591030 0.05500610
0.07450980 0.05837990 0.05896590 0.05796410
0.07843140 0.06139460 0.06204120 0.06094530
0.08235290 0.06443730 0.06514300 0.06395990
0.08627450 0.06751390 0.06827530 0.06701580
0.09019610 0.07062470 0.07144160 0.07011540
0.09411760 0.07377070 0.07463980 0.07325750
0.09803920 0.07695210 0.07786670 0.07643960
0.10196100 0.08016800 0.08111270 0.07965460
0.10588200 0.08341500 0.08437220 0.08289520
0.10980400 0.08669350 0.08765130 0.08615990
0.11372500 0.09000080 0.09095170 0.08944830
0.11764700 0.09333190 0.09427580 0.09275900
0.12156900 0.09668380 0.09762460 0.09609100
0.12549000 0.10005400 0.10099600 0.09944080
0.12941200 0.10344700 0.10438400 0.10280700
0.13333300 0.10686500 0.10778400 0.10618900
0.13725500 0.11030500 0.11119900 0.10958700
0.14117600 0.11377000 0.11463000 0.11300100
0.14509800 0.11725700 0.11807900 0.11643500
0.14902000 0.12076400 0.12154600 0.11988900
0.15294100 0.12429200 0.12502900 0.12336000
0.15686300 0.12783500 0.12852800 0.12684800
0.16078400 0.13139300 0.13204300 0.13035400
0.16470600 0.13496400 0.13557200 0.13387700
0.16862700 0.13854300 0.13911000 0.13741500
0.17254900 0.14213000 0.14265300 0.14096600
0.17647100 0.14572800 0.14620300 0.14452900
0.18039200 0.14933800 0.14976300 0.14810300
0.18431400 0.15296300 0.15333400 0.15168700
0.18823500 0.15660000 0.15692000 0.15528100
0.19215700 0.16025100 0.16052000 0.15888200
0.19607800 0.16391200 0.16413200 0.16249200
0.20000000 0.16757900 0.16775200 0.16610700
0.20392200 0.17124700 0.17137300 0.16972600
0.20784300 0.17491600 0.17499400 0.17335100
0.21176500 0.17859000 0.17861700 0.17698200
0.21568600 0.18227700 0.18225800 0.18063200
0.21960800 0.18597900 0.18591500 0.18430400
0.22352900 0.18970600 0.18959200 0.18800100
0.22745100 0.19346100 0.19329400 0.19173400
0.23137300 0.19724500 0.19702600 0.19550700
0.23529400 0.20105500 0.20079200 0.19932600
0.23921600 0.20488800 0.20459800 0.20318600
0.24313700 0.20874200 0.20844600 0.20708300
0.24705900 0.21261700 0.21233600 0.21101800
0.25098000 0.21651400 0.21626400 0.21498700
0.25490200 0.22043900 0.22022600 0.21898700
0.25882400 0.22438100 0.22421900 0.22301800
0.26274500 0.22833500 0.22822700 0.22705800
0.26666700 0.23230500 0.23224500 0.23110400
0.27058800 0.23628700 0.23625900 0.23514700
0.27451000 0.24027700 0.24025500 0.23917200
0.27843100 0.24427300 0.24422400 0.24317400
0.28235300 0.24827500 0.24816400 0.24715100
0.28627500 0.25227400 0.25207500 0.25110400
0.29019600 0.25625400 0.25596200 0.25502000
0.29411800 0.26021600 0.25981500 0.25888800
0.29803900 0.26415900 0.26363700 0.26271100
0.30196100 0.26807800 0.26742900 0.26649100
0.30588200 0.27196700 0.27118900 0.27022800
0.30980400 0.27582100 0.27492000 0.27392600
0.31372500 0.27964600 0.27862700 0.27758400
0.31764700 0.28345100 0.28231800 0.28121100
0.32156900 0.28722200 0.28600100 0.28481600
0.32549000 0.29095400 0.28967500 0.28839700
0.32941200 0.29465800 0.29334100 0.29195400
0.33333300 0.29833700 0.29700300 0.29549300
0.33725500 0.30199800 0.30067000 0.29902400
0.34117600 0.30564500 0.30433300 0.30254500
0.34509800 0.30927800 0.30798700 0.30605600
0.34902000 0.31290600 0.31163200 0.30955800
0.35294100 0.31653200 0.31526800 0.31305100
0.35686300 0.32015200 0.31890000 0.31654600
0.36078400 0.32376600 0.32252400 0.32004100
0.36470600 0.32737200 0.32613700 0.32353300
0.36862700 0.33097200 0.32973900 0.32702100
0.37254900 0.33457000 0.33332900 0.33050700
0.37647100 0.33817000 0.33691500 0.33399100
0.38039200 0.34177200 0.34050300 0.33748100
0.38431400 0.34537600 0.34409800 0.34098000
0.38823500 0.34898000 0.34769900 0.34448900
0.39215700 0.35258100 0.35131400 0.34801000
0.39607800 0.35617300 0.35494800 0.35154600
0.40000000 0.35976100 0.35859400 0.35509400
0.40392200 0.36335000 0.36224400 0.35864200
0.40784300 0.36694600 0.36590400 0.36219200
0.41176500 0.37055300 0.36957300 0.36574600
0.41568600 0.37416700 0.37325200 0.36930500
0.41960800 0.37778300 0.37693900 0.37286900
0.42352900 0.38139800 0.38063400 0.37643900
0.42745100 0.38501000 0.38433500 0.38001200
0.43137300 0.38862500 0.38803500 0.38358500
0.43529400 0.39225000 0.39172600 0.38715100
0.43921600 0.39588700 0.39541500 0.39070800
0.44313700 0.39952500 0.39910200 0.39426500
0.44705900 0.40315200 0.40278300 0.39782400
0.45098000 0.40677000 0.40644300 0.40139000
0.45490200 0.41038500 0.41008100 0.40495000
0.45882400 0.41400500 0.41370200 0.40850600
0.46274500 0.41763100 0.41731500 0.41206400
0.46666700 0.42125900 0.42093000 0.41564000
0.47058800 0.42489100 0.42455200 0.41923300
0.47451000 0.42853200 0.42818700 0.42284600
0.47843100 0.43218400 0.43183900 0.42648000
0.48235300 0.43585300 0.43551100 0.43013700
0.48627500 0.43955200 0.43920500 0.43381700
0.49019600 0.44327500 0.44292800 0.43752400
0.49411800 0.44701600 0.44668300 0.44126900
0.49803900 0.45077900 0.45045600 0.44505800
0.50196100 0.45455900 0.45425200 0.44887000
0.50588200 0.45835700 0.45807800 0.45270900
0.50980400 0.46217200 0.46193500 0.45657800
0.51372500 0.46600400 0.46582200 0.46047800
0.51764700 0.46984600 0.46973900 0.46440600
0.52156900 0.47369500 0.47368900 0.46836600
0.52549000 0.47754900 0.47765900 0.47235100
0.52941200 0.48140600 0.48164600 0.47635200
0.53333300 0.48526300 0.48564500 0.48036500
0.53725500 0.48912200 0.48965400 0.48438900
0.54117600 0.49298200 0.49367400 0.48842100
0.54509800 0.49684600 0.49770400 0.49246200
0.54902000 0.50071300 0.50174300 0.49651200
0.55294100 0.50458200 0.50577600 0.50057200
0.55686300 0.50845300 0.50979700 0.50463200
0.56078400 0.51232600 0.51380600 0.50868900
0.56470600 0.51620300 0.51780500 0.51274200
0.56862700 0.52008700 0.52179300 0.51679100
0.57254900 0.52397900 0.52577400 0.52083700
0.57647100 0.52788400 0.52975400 0.52488500
0.58039200 0.53180000 0.53374200 0.52893600
0.58431400 0.53572300 0.53774000 0.53300300
0.58823500 0.53965300 0.54174100 0.53708500
0.59215700 0.54359400 0.54573000 0.54117100
0.59607800 0.54754900 0.54970500 0.54525600
0.60000000 0.55151800 0.55366800 0.54933700
0.60392200 0.55550000 0.55762700 0.55341600
0.60784300 0.55949400 0.56158100 0.55749300
0.61176500 0.56351400 0.56552800 0.56156800
0.61568600 0.56756500 0.56947200 0.56564700
0.61960800 0.57163000 0.57341400 0.56974200
0.62352900 0.57571100 0.57735300 0.57385100
0.62745100 0.57981400 0.58129700 0.57797600
0.63137300 0.58394200 0.58525200 0.58212900
0.63529400 0.58808400 0.58922900 0.58631700
0.63921600 0.59223900 0.59321800 0.59053300
0.64313700 0.59640600 0.59721100 0.59476400
0.64705900 0.60057900 0.60120700 0.59900900
0.65098000 0.60475600 0.60521100 0.60326000
0.65490200 0.60893800 0.60922700 0.60751400
0.65882400 0.61312900 0.61325700 0.61177400
0.66274500 0.61732700 0.61730800 0.61604700
0.66666700 0.62153200 0.62138200 0.62033300
0.67058800 0.62573400 0.62548000 0.62463600
0.67451000 0.62993400 0.62960100 0.62895200
0.67843100 0.63412700 0.63374600 0.63328200
0.68235300 0.63830600 0.63791600 0.63762800
0.68627500 0.64247300 0.64211500 0.64198300
0.69019600 0.64664400 0.64633500 0.64633800
0.69411800 0.65082900 0.65057600 0.65071400
0.69803900 0.65503600 0.65486100 0.65512900
0.70196100 0.65926300 0.65920400 0.65959800
0.70588200 0.66349000 0.66361200 0.66412200
0.70980400 0.66769700 0.66808100 0.66867200
0.71372500 0.67188300 0.67258200 0.67320800
0.71764700 0.67605500 0.67710400 0.67773200
0.72156900 0.68022300 0.68164800 0.68225300
0.72549000 0.68440200 0.68622400 0.68678800
0.72941200 0.68859700 0.69083700 0.69135500
0.73333300 0.69280200 0.69549000 0.69594100
0.73725500 0.69702000 0.70016400 0.70053600
0.74117600 0.70125300 0.70484900 0.70513800
0.74509800 0.70549200 0.70953100 0.70973300
0.74902000 0.70974100 0.71419100 0.71431800
0.75294100 0.71400500 0.71882700 0.71889200
0.75686300 0.71828200 0.72344400 0.72345100
0.76078400 0.72258000 0.72804000 0.72800500
0.76470600 0.72690400 0.73262200 0.73255500
0.76862700 0.73125600 0.73719900 0.73711000
0.77254900 0.73563500 0.74178100 0.74166500
0.77647100 0.74004000 0.74636500 0.74621500
0.78039200 0.74446300 0.75094800 0.75075600
0.78431400 0.74888200 0.75552500 0.75526200
0.78823500 0.75329700 0.76009300 0.75972800
0.79215700 0.75771000 0.76465700 0.76415900
0.79607800 0.76213400 0.76923100 0.76857500
0.80000000 0.76657600 0.77383000 0.77297800
0.80392200 0.77103800 0.77845000 0.77737100
0.80784300 0.77551900 0.78309300 0.78175700
0.81176500 0.78001400 0.78776100 0.78613100
0.81568600 0.78452700 0.79244800 0.79049300
0.81960800 0.78906900 0.79715100 0.79485200
0.82352900 0.79364200 0.80187000 0.79920900
0.82745100 0.79821700 0.80657900 0.80355400
0.83137300 0.80279100 0.81127500 0.80788900
0.83529400 0.80737900 0.81597200 0.81223100
0.83921600 0.81199300 0.82067900 0.81659500
0.84313700 0.81662400 0.82539900 0.82097900
0.84705900 0.82126000 0.83011500 0.82537300
0.85098000 0.82589900 0.83481900 0.82976500
0.85490200 0.83053000 0.83950100 0.83415700
0.85882400 0.83515800 0.84416100 0.83854800
0.86274500 0.83978200 0.84880100 0.84294400
0.86666700 0.84440200 0.85340600 0.84733500
0.87058800 0.84902400 0.85798600 0.85171500
0.87451000 0.85362700 0.86254500 0.85609300
0.87843100 0.85820700 0.86708100 0.86046400
0.88235300 0.86276800 0.87160200 0.86483400
0.88627500 0.86730200 0.87611000 0.86920600
0.89019600 0.87179800 0.88060500 0.87357700
0.89411800 0.87625200 0.88508500 0.87794500
0.89803900 0.88067600 0.88956800 0.88230700
0.90196100 0.88505600 0.89405000 0.88668400
0.90588200 0.88939100 0.89851900 0.89106100
0.90980400 0.89368600 0.90297400 0.89543000
0.91372500 0.89795000 0.90740100 0.89979300
0.91764700 0.90218900 0.91180200 0.90415000
0.92156900 0.90640700 0.91617400 0.90850500
0.92549000 0.91061200 0.92052300 0.91285600
0.92941200 0.91480900 0.92486500 0.91720500
0.93333300 0.91900000 0.92920300 0.92156200
0.93725500 0.92319000 0.93353500 0.92592900
0.94117600 0.92737300 0.93785200 0.93030700
0.94509800 0.93155100 0.94215200 0.93469200
0.94902000 0.93572400 0.94642600 0.93908800
0.95294100 0.93989300 0.95067400 0.94348800
0.95686300 0.94405700 0.95490500 0.94789600
0.96078400 0.94821400 0.95912100 0.95231000
0.96470600 0.95236100 0.96331900 0.95673000
0.96862700 0.95649400 0.96750000 0.96115100
0.97254900 0.96061500 0.97166500 0.96557500
0.97647100 0.96472800 0.97581600 0.97000300
0.98039200 0.96883300 0.97995200 0.97443600
0.98431400 0.97292900 0.98407500 0.97887500
0.98823500 0.97701600 0.98818300 0.98331800
0.99215700 0.98109600 0.99227800 0.98776700
0.99607800 0.98516600 0.99635900 0.99222000
1.00000000 0.98922900 1.00000000 0.99667900
END_DATA
