CTI3   

DESCRIPTOR "Argyll Calibration Target chart information 3"
ORIGINATOR "Argyll dispread"
CREATED "Tue Feb 09 09:17:15 2021"
DEVICE_CLASS "DISPLAY"
SINGLE_DIM_STEPS "21"
COMP_GREY_STEPS "61"
DARK_REGION_EMPHASIS "1.6"
COLOR_REP "RGB_XYZ"
TARGET_INSTRUMENT "X-Rite i1 DisplayPro, ColorMunki Display"
DISPLAY_TYPE_REFRESH "NO"
DISPLAY_TYPE_BASE_ID "1"
INSTRUMENT_TYPE_SPECTRAL "NO"
LUMINANCE_XYZ_CDM2 "211.597419 221.739138 245.743979"
NORMALIZED_TO_Y_100 "YES"
VIDEO_LUT_CALIBRATION_POSSIBLE "YES"

BEGIN_ARGYLL_COLPROF_ARGS
-v -qh -aX -bn -C "No copyright. Created with DisplayCAL 3.8.9.3 and ArgyllCMS 2.1.2" -M "KOIOS K2418U"
END_ARGYLL_COLPROF_ARGS

OBSERVER "1931_2"
USE_BLACK_POINT_COMPENSATION "NO"
BLACK_POINT_CORRECTION "0.0"
HIRES_B2A "YES"
HIRES_B2A_SIZE "-1"
SMOOTH_B2A "YES"
PATCH_SEQUENCE "OPTIMIZE_DISPLAY_RESPONSE_DELAY"

NUMBER_OF_FIELDS 7
BEGIN_DATA_FORMAT
SAMPLE_ID RGB_R RGB_G RGB_B XYZ_X XYZ_Y XYZ_Z
END_DATA_FORMAT

NUMBER_OF_SETS 588
BEGIN_DATA
1 100.0000 100.0000 100.0000 95.42631 100.0000 110.8258
2 1.960800 1.960800 1.960800 0.514551 0.537973 0.616059
3 3.921600 3.921600 3.921600 0.672969 0.701826 0.817210
4 5.882400 5.882400 5.882400 0.804892 0.836563 0.983002
5 9.803900 9.803900 9.803900 1.276792 1.330412 1.539498
6 13.72600 13.72600 13.72600 1.932363 2.015070 2.294078
7 17.64700 17.64700 17.64700 2.750378 2.870256 3.253200
8 21.56900 21.56900 21.56900 3.787039 3.962240 4.471601
9 25.49000 25.49000 25.49000 5.242711 5.479907 6.203430
10 29.41200 29.41200 29.41200 6.960443 7.277323 8.195528
11 33.33300 33.33300 33.33300 8.957717 9.408913 10.35593
12 37.25500 37.25500 37.25500 11.10858 11.65968 12.84879
13 41.17600 41.17600 41.17600 13.56520 14.22918 15.67305
14 45.09800 45.09800 45.09800 16.49395 17.35091 18.82828
15 49.02000 49.02000 49.02000 19.57410 20.59691 22.61881
16 52.94100 52.94100 52.94100 23.11026 24.28396 26.23781
17 56.86300 56.86300 56.86300 26.98584 28.30145 30.97490
18 60.78400 60.78400 60.78400 31.10108 32.60218 35.79907
19 64.70600 64.70600 64.70600 35.77209 37.39115 41.48274
20 68.62700 68.62700 68.62700 40.95506 42.82838 47.16947
21 72.54900 72.54900 72.54900 46.14190 48.23239 52.94156
22 76.47100 76.47100 76.47100 51.81685 54.24714 59.49027
23 80.39200 80.39200 80.39200 57.70126 60.50209 66.55568
24 84.31400 84.31400 84.31400 64.17963 67.31662 73.70738
25 88.23500 88.23500 88.23500 71.11855 74.78495 82.06675
26 92.15700 92.15700 92.15700 78.97018 82.82658 91.19560
27 96.07800 96.07800 96.07800 87.06889 91.54506 101.2779
28 27.35070 44.61710 77.89350 19.70284 16.83093 63.44859
29 63.07900 56.56300 77.16970 34.87982 30.44738 60.44560
30 0.000000 76.99180 43.40470 23.71612 43.94495 20.39034
31 0.000000 76.29270 70.91880 29.33125 44.61386 53.31215
32 0.000000 100.0000 88.82860 52.54362 82.34498 89.15874
33 0.000000 100.0000 100.0000 57.48514 83.40309 116.7837
34 0.000000 84.59920 100.0000 45.52720 58.08411 115.6840
35 27.49970 90.33590 100.0000 50.72100 66.70477 114.5497
36 62.86980 92.11740 100.0000 62.67805 74.40744 112.6107
37 78.02620 100.0000 100.0000 77.56724 91.65695 112.2443
38 0.000000 19.18110 72.95880 11.39161 5.280358 55.32533
39 0.000000 33.40250 73.88680 13.73830 9.917310 56.65294
40 0.000000 38.30780 100.0000 25.68510 15.06933 116.2932
41 0.000000 53.67640 100.0000 30.05956 24.73336 115.6173
42 0.000000 69.10910 100.0000 36.48311 38.62224 115.4096
43 33.99250 70.92890 100.0000 40.10026 41.70472 113.6921
44 0.000000 55.83160 57.93670 16.04466 22.67691 34.03451
45 40.97610 66.15720 62.67420 26.25754 34.51832 39.21960
46 40.54050 0.000000 0.000000 6.603982 3.533000 0.496303
47 45.77470 0.000000 0.000000 8.409448 4.446341 0.496366
48 51.47060 0.000000 0.000000 10.71742 5.616665 0.496074
49 57.69230 0.000000 0.000000 13.64175 7.097069 0.505538
50 61.15440 0.000000 0.000000 15.62528 8.102688 0.504981
51 64.51610 0.000000 0.000000 17.57474 9.089928 0.512879
52 70.60140 32.70290 34.86110 24.82844 16.86735 10.81402
53 32.75730 13.63820 0.000000 4.865056 3.538113 0.582210
54 53.32510 19.87340 0.000000 12.37879 8.100819 0.667285
55 54.24700 0.000000 14.50880 12.11029 6.249100 2.153415
56 76.33260 0.000000 30.95150 26.29307 13.17139 8.609620
57 100.0000 0.000000 55.23880 50.94693 24.88150 28.30976
58 100.0000 0.000000 69.03180 54.04954 25.71733 46.78865
59 100.0000 33.28970 82.66860 59.43719 31.71873 69.17611
60 74.77030 64.45850 0.000000 36.04077 39.52769 3.024923
61 78.09330 80.59840 0.000000 46.81595 59.31063 4.771170
62 78.64950 100.0000 0.000000 61.73163 90.43222 7.663023
63 84.31110 100.0000 26.19140 65.92711 91.62276 11.54828
64 0.000000 31.25000 0.000000 3.406311 6.795705 1.057982
65 0.000000 35.71430 0.000000 4.334572 8.703540 1.227206
66 0.000000 40.54050 0.000000 5.470913 11.12839 1.446868
67 0.000000 45.77470 0.000000 7.074254 14.46057 1.745815
68 0.000000 51.47060 0.000000 9.060107 18.58366 2.116873
69 0.000000 57.69230 0.000000 11.50441 23.66630 2.583009
70 0.000000 64.51610 0.000000 14.67236 30.31545 3.188400
71 0.000000 72.03390 0.000000 18.53228 38.37782 3.928663
72 0.000000 80.35710 0.000000 23.54012 48.81290 4.887026
73 0.000000 89.62260 0.000000 30.72005 63.86174 6.279541
74 36.83750 100.0000 87.94570 54.91255 82.82031 85.27378
75 43.86390 100.0000 100.0000 61.86560 84.58819 114.7654
76 0.000000 0.000000 4.807700 0.459745 0.434164 0.814452
77 0.000000 0.000000 7.425700 0.513337 0.446862 1.112599
78 0.000000 0.000000 10.20410 0.589463 0.465904 1.531598
79 0.000000 0.000000 13.15790 0.701739 0.497296 2.124596
80 0.000000 0.000000 16.30430 0.839048 0.531668 2.883090
81 0.000000 0.000000 19.66290 1.006284 0.578827 3.813462
82 0.000000 0.000000 23.25580 1.264138 0.647614 5.235037
83 0.000000 0.000000 27.10840 1.625310 0.748685 7.218064
84 0.000000 0.000000 31.25000 2.116483 0.886004 9.914938
85 0.000000 0.000000 35.71430 2.628702 1.030154 12.72823
86 0.000000 0.000000 40.54050 3.234286 1.204929 16.04403
87 0.000000 0.000000 45.77470 4.114599 1.452761 20.81685
88 0.000000 0.000000 51.47060 5.083331 1.731330 26.12807
89 0.000000 0.000000 57.69230 6.551642 2.155095 34.08842
90 0.000000 0.000000 64.51610 8.346061 2.668344 43.84221
91 0.000000 0.000000 72.03390 10.40938 3.265648 55.04893
92 0.000000 0.000000 80.35710 13.32981 4.097435 70.87402
93 0.000000 0.000000 89.62260 17.37103 5.247665 92.77215
94 31.99180 0.000000 100.0000 25.23149 8.184842 117.4701
95 80.61940 0.000000 100.0000 47.70906 19.74850 114.1495
96 0.000000 2.336400 0.000000 0.443258 0.511364 0.482051
97 2.336400 2.336400 2.336400 0.516932 0.539759 0.621445
98 3.144700 3.144700 3.144700 0.595081 0.620585 0.721624
99 3.968300 3.968300 3.968300 0.676097 0.704308 0.824339
100 4.807700 4.807700 4.807700 0.719603 0.750304 0.878312
101 5.663400 5.663400 5.663400 0.809730 0.840261 0.990897
102 6.535900 6.535900 6.535900 0.915078 0.950578 1.123208
103 7.425700 7.425700 7.425700 0.987551 1.051534 1.177728
104 8.333300 8.333300 8.333300 1.086712 1.129182 1.321891
105 9.259300 9.259300 9.259300 1.234928 1.314261 1.470417
106 10.20410 10.20410 10.20410 1.354458 1.410088 1.627428
107 11.16840 11.16840 11.16840 1.485414 1.541515 1.782176
108 12.15280 12.15280 12.15280 1.619406 1.685858 1.936979
109 13.15790 13.15790 13.15790 1.850911 1.929192 2.212156
110 14.18440 14.18440 14.18440 1.980313 2.079073 2.290074
111 15.23300 15.23300 15.23300 2.212086 2.344394 2.590183
112 16.30430 16.30430 16.30430 2.462848 2.571924 2.929899
113 17.39930 17.39930 17.39930 2.654408 2.767574 3.161043
114 18.51850 18.51850 18.51850 2.944212 3.095341 3.388930
115 19.66290 19.66290 19.66290 3.221837 3.405163 3.776556
116 20.83330 20.83330 20.83330 3.557181 3.712978 4.214763
117 22.03070 22.03070 22.03070 3.936242 4.109460 4.667686
118 23.25580 23.25580 23.25580 4.359336 4.549807 5.181647
119 24.50980 24.50980 24.50980 4.795775 5.007110 5.683294
120 25.79360 25.79360 25.79360 5.429601 5.669027 6.426993
121 27.10840 27.10840 27.10840 5.915862 6.173550 6.994885
122 28.45530 28.45530 28.45530 6.628482 6.943919 7.864606
123 29.83540 29.83540 29.83540 7.171968 7.489919 8.494237
124 31.25000 31.25000 31.25000 8.016454 8.359343 9.473635
125 32.70040 32.70040 32.70040 8.542394 8.978088 9.930272
126 34.18800 34.18800 34.18800 9.361980 9.747976 10.99959
127 35.71430 35.71430 35.71430 10.24011 10.70523 12.13301
128 37.28070 37.28070 37.28070 11.18134 11.70645 12.99367
129 38.88890 38.88890 38.88890 12.25580 12.84494 14.21423
130 40.54050 40.54050 40.54050 13.17777 13.74582 15.18504
131 42.23740 42.23740 42.23740 14.54060 15.24003 16.90470
132 43.98150 43.98150 43.98150 15.75724 16.53006 18.33730
133 45.77470 45.77470 45.77470 17.01993 17.83556 19.79691
134 47.61910 47.61910 47.61910 18.36958 19.22433 21.34229
135 49.51690 49.51690 49.51690 20.03738 21.04494 22.89007
136 51.47060 51.47060 51.47060 21.82441 22.93589 24.86574
137 53.48260 53.48260 53.48260 23.61529 24.79372 26.92648
138 55.55560 55.55560 55.55560 25.96663 27.19096 29.93048
139 57.69230 57.69230 57.69230 27.94954 29.21591 32.24821
140 59.89580 59.89580 59.89580 30.42685 31.83064 35.25395
141 62.16930 62.16930 62.16930 33.08205 34.62602 38.25998
142 64.51610 64.51610 64.51610 35.96157 37.57559 41.86512
143 66.93990 66.93990 66.93990 39.14263 40.93190 44.95824
144 69.44440 69.44440 69.44440 42.07669 43.93046 48.56337
145 72.03390 72.03390 72.03390 45.91546 47.92904 52.85711
146 74.71260 74.71260 74.71260 49.59969 51.91924 57.23876
147 77.48540 77.48540 77.48540 53.78737 56.36125 62.30596
148 80.35710 80.35710 80.35710 57.97643 60.73153 67.20051
149 83.33330 83.33330 83.33330 62.27869 65.26110 71.66749
150 86.41970 86.41970 86.41970 67.70571 71.11287 78.19640
151 89.62260 89.62260 89.62260 74.41755 78.00831 86.00877
152 92.94870 92.94870 92.94870 80.81646 84.64357 93.82157
153 96.40520 96.40520 96.40520 88.22502 92.59204 102.8408
154 80.35710 0.000000 0.000000 28.07557 14.41106 0.540898
155 100.0000 27.35150 0.000000 48.17037 27.62663 0.937153
156 100.0000 46.42150 0.000000 51.78940 36.13113 1.740173
157 100.0000 55.72190 39.57200 56.02316 42.61609 13.91844
158 100.0000 62.00860 55.96240 60.58576 48.07591 29.40913
159 50.43060 24.01730 28.66600 12.61989 8.654351 7.522826
160 60.55620 54.18350 31.28950 24.34273 26.49802 9.810739
161 0.000000 100.0000 0.000000 39.13849 81.39992 7.926107
162 34.64410 100.0000 0.000000 42.10421 81.91042 7.792276
163 58.72750 100.0000 0.000000 50.37090 85.47127 7.736638
164 100.0000 100.0000 0.000000 80.64930 99.43732 7.701766
165 0.000000 34.27100 35.80580 5.920687 8.204094 12.72381
166 0.000000 60.16710 45.79910 15.65445 26.21017 21.32979
167 65.83800 73.69850 57.95300 39.60268 47.39907 33.31828
168 9.484600 18.97610 11.32450 1.958498 2.778211 1.858845
169 30.53720 23.58190 18.48110 5.572678 5.315381 3.361646
170 36.46340 69.50070 56.45650 25.50339 37.08002 32.07495
171 50.77620 87.87780 72.90040 44.62808 63.30297 55.87768
172 85.43450 93.13220 100.0000 77.74374 82.42237 112.4292
173 10.20410 0.000000 0.000000 0.831311 0.629496 0.486972
174 13.15790 0.000000 0.000000 1.071761 0.750879 0.500730
175 16.30430 0.000000 0.000000 1.372392 0.899213 0.501018
176 37.13000 79.52700 0.000000 26.98956 48.97296 4.694621
177 50.86530 100.0000 35.27810 47.93697 83.36351 16.54209
178 100.0000 100.0000 33.84510 80.87286 98.54932 14.76699
179 36.08670 37.35160 0.000000 9.081930 11.43533 1.244816
180 50.36480 49.58020 13.28260 17.28487 20.85880 3.156158
181 54.75980 55.06450 100.0000 40.04796 29.90083 113.7516
182 58.38570 67.82770 100.0000 46.70510 42.19404 113.3422
183 19.66290 0.000000 0.000000 1.729435 1.077741 0.513138
184 35.58920 0.000000 14.34720 5.365469 2.830354 2.262480
185 60.23650 0.000000 35.55240 16.98786 8.318066 11.92924
186 72.56530 26.85920 48.78680 27.25465 15.90620 21.75060
187 100.0000 31.51120 51.82980 51.89243 29.38572 23.91432
188 0.000000 0.000000 0.000000 0.405434 0.425613 0.466158
189 0.000000 73.49460 80.68820 30.95238 42.05307 71.07098
190 48.16900 82.62430 100.0000 50.62246 57.78694 114.4013
191 100.0000 100.0000 100.0000 96.11384 100.5907 112.1107
192 80.87160 48.87000 0.000000 34.57406 29.14532 1.880844
193 100.0000 79.56640 0.000000 66.02696 67.38874 4.679515
194 100.0000 88.90100 76.52900 79.55977 81.00641 60.18328
195 23.21360 11.88300 28.31580 3.850789 2.528570 7.661138
196 39.60560 22.00910 32.75140 8.910228 6.290182 10.06006
197 57.41960 35.35320 61.96550 22.48150 15.36851 37.58429
198 0.000000 13.75850 28.62200 2.332859 1.979432 8.183600
199 0.000000 16.35140 48.93070 5.387147 3.166716 23.92756
200 28.75020 24.52930 49.30380 8.720105 6.258428 23.24323
201 35.57640 35.86180 67.47930 16.21072 12.08561 46.45266
202 55.76820 40.88110 100.0000 36.32040 20.93801 114.0009
203 78.81100 66.79620 100.0000 57.82906 46.63284 112.2181
204 83.10670 81.24470 100.0000 68.10257 64.26110 112.1858
205 0.000000 0.000000 2.336400 0.426646 0.431453 0.600185
206 0.764500 0.764500 0.764500 0.428917 0.451797 0.499695
207 1.543200 1.543200 1.543200 0.488927 0.512088 0.583844
208 23.25580 0.000000 0.000000 2.278214 1.353189 0.509673
209 28.70920 22.17970 0.000000 4.628171 4.758054 0.737054
210 29.37880 32.42120 10.32060 6.572240 8.506810 1.953765
211 29.42010 70.57160 38.37370 21.78515 37.13322 15.66243
212 48.81570 100.0000 76.02780 54.50497 83.74940 62.84088
213 73.25180 100.0000 82.21040 68.26291 89.40018 72.66722
214 0.000000 27.10840 0.000000 2.610945 5.068925 0.916716
215 30.54230 59.58800 0.000000 15.15915 26.57173 2.696536
216 100.0000 63.54750 0.000000 58.04668 49.84693 3.029125
217 100.0000 71.33480 25.17100 61.74471 57.48292 7.577854
218 100.0000 71.00520 47.59310 63.44111 57.15176 21.20457
219 58.74520 48.76670 0.000000 20.89370 22.35029 1.852216
220 77.77850 50.39180 100.0000 51.06907 32.54083 112.6847
221 58.08860 0.000000 100.0000 34.24443 12.81540 116.7244
222 58.65690 24.53910 100.0000 35.25587 15.57202 114.8698
223 0.000000 0.000000 0.000000 0.406082 0.426137 0.467568
224 27.10840 0.000000 0.000000 3.031926 1.730157 0.507212
225 31.25000 0.000000 0.000000 4.042463 2.238750 0.500991
226 35.71430 0.000000 0.000000 5.132285 2.790392 0.502164
227 79.52490 0.000000 46.25740 30.52658 14.86636 19.79757
228 81.02790 0.000000 61.17770 34.50975 16.19417 36.72856
229 0.000000 4.807700 0.000000 0.525303 0.676955 0.519912
230 0.000000 0.000000 100.0000 22.56928 6.724671 120.9144
231 0.000000 22.16000 100.0000 23.37475 9.183162 118.9723
232 21.56640 0.000000 25.81400 3.032315 1.480008 6.524463
233 40.09480 0.000000 31.54290 7.956497 3.843610 9.512329
234 44.01930 0.000000 50.92660 11.93877 5.234621 25.06230
235 52.37890 0.000000 73.99870 21.10183 8.565876 57.46037
236 74.19270 0.000000 82.65480 35.92039 15.46495 72.77657
237 100.0000 0.000000 100.0000 66.00522 29.05234 113.8546
238 100.0000 28.00430 100.0000 66.41166 31.97529 112.0120
239 0.000000 19.66290 0.000000 1.551996 2.843998 0.725641
240 0.000000 23.25580 0.000000 1.968612 3.717655 0.798558
241 0.000000 61.30310 78.90780 24.24036 28.99798 66.92613
242 66.04370 80.81510 100.0000 57.22110 58.87102 113.6330
243 100.0000 100.0000 100.0000 96.30190 100.7438 112.5390
244 0.000000 13.15790 0.000000 0.964493 1.604191 0.625234
245 0.000000 16.30430 0.000000 1.207962 2.116766 0.662680
246 27.39670 36.33800 42.53010 9.530215 10.51541 17.21731
247 27.97820 43.21220 43.97300 11.53838 14.21236 18.87711
248 40.53860 51.54720 49.90590 17.86355 21.23166 23.78351
249 44.79060 55.31640 61.57380 23.00463 25.28335 37.91430
250 0.000000 7.425700 0.000000 0.646612 0.927742 0.567919
251 0.000000 10.20410 0.000000 0.771736 1.194779 0.591232
252 0.000000 14.31250 17.09310 1.478161 1.822024 3.265235
253 0.000000 25.13520 17.87300 2.719241 4.418698 3.513102
254 100.0000 84.04200 41.54570 69.85503 72.90716 17.51448
255 100.0000 84.93360 59.28930 73.04680 74.59090 34.54927
256 100.0000 85.80630 87.11940 80.86396 77.07436 80.32366
257 100.0000 70.28470 85.35460 71.60781 57.58595 75.85251
258 100.0000 76.55110 100.0000 80.77618 66.08900 111.4227
259 100.0000 88.49740 100.0000 87.91773 82.13577 111.7546
260 0.000000 76.06910 25.76400 21.71848 43.33941 9.477659
261 0.000000 100.0000 25.63950 39.68119 81.02047 12.41604
262 0.000000 100.0000 45.27830 41.60361 81.06377 24.42579
263 0.000000 100.0000 61.40220 44.66997 81.34540 42.55310
264 0.000000 100.0000 75.53440 48.41614 82.01656 64.27617
265 0.000000 39.97070 20.47250 5.970884 10.98893 4.763646
266 32.92170 42.91740 20.37880 10.17966 14.06938 4.581387
267 47.22130 59.38050 37.39970 21.10429 28.09344 13.78725
268 63.80320 90.94480 37.16100 47.07228 71.24856 16.26101
269 100.0000 100.0000 55.56280 83.54176 98.85854 32.39679
270 100.0000 100.0000 71.82340 86.83611 99.22312 54.03591
271 100.0000 100.0000 88.90500 91.85877 100.0130 85.34043
272 28.19880 47.76940 100.0000 30.20031 21.26407 116.1568
273 100.0000 47.06050 100.0000 69.67575 40.13061 111.4991
274 35.62510 9.645500 41.13430 7.952078 4.018861 16.11474
275 48.48740 27.75720 48.07580 14.83777 10.07179 22.09958
276 100.0000 32.30310 66.44620 55.19752 30.45550 42.56545
277 100.0000 52.02620 79.95270 63.25916 41.69201 64.91429
278 100.0000 62.71180 100.0000 74.55390 51.72347 111.4479
279 55.95410 100.0000 54.33010 52.60328 84.56181 32.37261
280 72.98910 100.0000 65.00080 63.66413 88.82723 45.21659
281 49.85530 57.94740 0.000000 20.34791 27.78445 2.541491
282 51.94640 60.27520 28.20460 22.76823 30.06004 8.709858
283 28.45330 0.000000 57.51470 9.283718 3.534092 33.98747
284 32.27410 24.44100 70.61500 14.54935 7.856336 51.89213
285 60.19410 66.30620 74.58280 37.11307 38.98795 57.46956
286 75.70470 27.54030 0.000000 26.17650 16.63574 0.886670
287 87.43230 39.65220 12.69270 37.71413 26.13511 2.388774
288 72.03390 0.000000 0.000000 22.55154 11.61675 0.534502
289 77.21100 0.000000 17.72820 26.11937 13.32396 2.936841
290 100.0000 27.21160 21.19420 48.45139 27.45743 3.915327
291 100.0000 43.65130 23.43100 51.58998 34.58349 5.200197
292 100.0000 45.45790 44.08740 53.66380 35.70261 17.22267
293 0.000000 26.01510 36.23740 4.493852 5.066095 12.77265
294 0.000000 42.97740 55.33000 11.48918 13.92192 31.04310
295 67.41950 57.82050 64.72540 35.08182 32.30810 41.96148
296 89.62260 0.000000 0.000000 36.72816 18.80736 0.577848
297 100.0000 0.000000 0.000000 47.23598 24.12489 0.614423
298 100.0000 0.000000 14.93310 47.27233 24.08076 2.171846
299 100.0000 0.000000 28.75720 47.94038 24.21985 7.187105
300 100.0000 0.000000 42.18340 49.29394 24.52996 16.10381
301 4.807700 0.000000 0.000000 0.542695 0.490116 0.471077
302 7.425700 0.000000 0.000000 0.661818 0.549661 0.482092
303 44.07130 29.70390 0.000000 10.07383 9.377333 0.948312
304 61.87070 37.19950 0.000000 19.65131 16.57246 1.244329
305 84.13880 56.55890 45.34160 42.28954 36.15259 19.11828
306 38.83280 30.43430 19.05990 8.930606 8.872312 3.742888
307 61.36380 30.10100 70.99940 26.01996 15.00653 51.49402
308 85.14980 73.47100 72.80050 55.91273 54.02648 54.17794
309 74.81570 16.77630 39.54880 26.60808 14.17828 13.94600
310 88.81800 15.03890 39.91520 37.67369 19.54475 14.01542
311 90.90060 17.94500 52.39930 41.64941 21.43806 25.30871
312 100.0000 52.46770 63.41380 59.20601 41.15936 39.34151
313 13.07650 24.31580 25.17370 3.589802 4.443651 6.230232
314 12.83070 31.11230 36.36110 5.908531 7.193963 12.92020
315 15.36450 34.18160 51.08480 8.849313 9.002142 25.42998
316 21.60760 42.70040 53.61680 12.17195 13.92052 28.80431
317 31.77850 54.67030 58.25000 18.63856 23.00769 34.42892
318 59.50720 58.28380 43.31340 26.98589 30.12148 18.05113
319 62.60200 68.71070 44.69760 33.29384 40.77987 19.59073
320 84.37710 75.76950 46.99470 51.33113 55.58495 21.70627
321 14.88610 13.17020 24.20200 2.597157 2.141100 5.828693
322 18.24650 13.78070 41.68910 4.983670 2.903440 16.88720
323 88.39810 36.52160 40.93450 39.44070 25.17821 14.66858
324 73.01420 45.80480 26.76160 28.99142 24.33844 6.909323
325 87.69100 46.60630 35.35550 40.90570 30.27832 11.39260
326 16.82970 50.22370 24.09970 10.07860 17.93926 6.499921
327 15.67590 63.02740 53.63920 19.05222 29.57580 29.64778
328 37.88280 83.58800 54.06740 33.78333 54.78142 30.78876
329 57.39030 91.37820 63.52770 48.40876 70.86399 43.00544
330 63.07550 100.0000 91.90590 66.28678 87.75498 94.86740
331 0.000000 43.29910 34.91160 8.236341 13.23008 12.52769
332 11.52340 46.39750 65.39580 15.12551 16.38758 44.74174
333 10.04200 56.12190 65.39110 18.48261 23.70766 44.89909
334 22.52640 64.16340 85.58010 29.09230 32.82689 80.28626
335 68.85780 70.68660 10.60510 35.76027 44.47858 4.336419
336 69.86840 78.49040 27.40030 41.04438 53.99373 9.600812
337 69.51550 78.62970 41.98410 42.22506 54.32281 18.13901
338 17.32730 23.60080 0.000000 2.992235 4.265423 0.786734
339 18.96440 33.59840 31.31700 6.339523 8.323729 9.789587
340 52.87480 44.08610 55.15100 21.22014 18.66481 29.77411
341 65.45730 50.76340 66.40660 31.81724 26.49978 44.05643
342 0.000000 0.000000 0.000000 0.408048 0.428073 0.471545
343 3.895500 20.32420 41.53230 4.587708 3.646488 17.03082
344 0.000000 18.69510 85.75180 16.45311 6.620390 83.12459
345 4.658800 35.22330 86.47240 19.13066 12.04843 83.94620
346 2.417700 43.82630 86.49760 21.27097 16.74162 83.90662
347 88.45470 13.04340 17.79990 35.99649 18.98665 2.894653
348 100.0000 26.47220 35.87880 49.48113 27.51379 11.14879
349 100.0000 100.0000 100.0000 96.64957 101.0296 113.1384
350 55.05520 44.48420 47.77170 20.92832 19.11125 21.81549
351 59.69200 54.87590 48.13160 26.36786 27.38816 22.38561
352 70.69920 59.80830 58.08500 36.20080 34.83618 32.98781
353 72.96650 68.06430 77.77110 46.51477 44.72058 62.99293
354 32.36380 10.47350 26.11480 5.594410 3.316940 6.587993
355 32.23460 8.270700 70.02850 13.39344 5.214391 51.52258
356 32.29060 0.000000 78.96540 16.10356 5.645824 67.34382
357 45.73230 13.55090 87.64670 23.72424 9.451945 85.54642
358 66.82060 14.64280 88.70280 34.14327 14.70701 87.01807
359 86.26210 16.61220 86.99840 46.81831 21.46953 82.30977
360 91.17740 55.22650 85.58760 57.43243 40.17363 76.71948
361 6.424500 10.11320 17.58400 1.438761 1.379607 3.353416
362 10.85460 9.919200 49.44710 5.449162 2.457253 24.25642
363 18.81870 12.48560 60.15410 8.618066 3.754226 37.17249
364 18.40650 15.42980 73.54850 12.55703 5.196727 58.13436
365 40.84820 39.80140 88.76990 25.69522 16.45003 87.17656
366 46.82240 53.02340 87.69970 30.96498 25.71872 84.93766
367 78.73030 89.45470 90.47480 66.92984 74.24524 90.51672
368 66.13160 23.84780 4.979700 20.01453 12.70248 1.064909
369 75.14500 41.00240 11.10000 28.63920 22.42086 2.291583
370 76.84960 56.70060 11.93770 34.79467 33.79885 3.271760
371 89.70090 67.42190 10.30340 49.66521 48.86738 3.972724
372 94.40600 71.09330 36.87710 56.78295 54.48439 13.54792
373 93.50830 90.01260 83.65140 76.17194 80.22178 73.42049
374 57.52530 73.92450 65.26450 37.64580 46.60167 43.70513
375 65.23710 76.65120 74.60370 45.00312 51.53215 58.07390
376 74.32660 78.67210 88.47590 56.67216 57.99057 85.42958
377 35.88700 46.04450 60.59660 17.23799 17.31281 37.26863
378 42.87230 49.10110 72.50890 23.13172 21.02126 54.55323
379 43.57540 70.82050 84.06410 36.13628 41.65986 76.55592
380 63.82510 80.65620 84.77030 50.04697 57.20548 77.37573
381 69.14430 91.18310 86.03150 60.63327 74.50276 79.98992
382 17.77230 38.34300 12.15010 6.187423 10.58074 2.573811
383 52.67630 40.67130 12.53130 15.89945 16.01620 2.570746
384 58.01750 27.04800 23.16970 16.10345 11.30688 4.970748
385 63.83000 31.60340 41.34310 21.75549 14.96103 15.51355
386 82.11280 32.29270 45.13210 34.20709 21.08747 18.30312
387 89.44060 38.79910 59.00890 44.14688 27.60138 32.91612
388 36.60570 35.85210 26.74580 9.697671 10.76435 6.994701
389 49.60320 42.57710 34.45740 16.40463 16.65817 11.46011
390 73.58980 58.21890 40.83260 34.83129 33.74917 15.68644
391 69.14470 66.07070 34.00060 34.57466 39.55941 11.98166
392 89.62950 69.95320 54.77110 54.12576 51.12970 29.30213
393 100.0000 76.38060 67.45180 70.20642 64.14394 46.07306
394 47.77760 19.83460 10.74120 10.26128 6.997840 1.676577
395 54.99410 33.61670 13.40170 15.43387 13.04561 2.446311
396 66.31860 33.34640 15.68380 21.63613 16.07557 2.824493
397 75.36470 36.09590 25.34290 28.04383 19.88244 6.018027
398 85.06280 80.45430 61.37120 57.05461 62.07912 37.58329
399 85.19860 87.98550 74.46950 64.98468 72.77572 58.12526
400 10.15720 19.83530 26.87000 3.049957 3.204667 7.286799
401 16.84390 28.29870 57.26160 9.387366 7.121940 33.36073
402 16.37910 28.37460 86.48280 18.47077 9.535458 83.91407
403 29.53990 34.24290 100.0000 27.30477 14.08129 117.2803
404 10.88240 22.59790 62.14510 9.283798 5.470556 39.76244
405 24.92080 33.40680 75.37400 16.18253 10.87906 60.40274
406 71.72260 47.83980 74.78680 37.31258 27.01879 57.60821
407 18.22920 68.51980 46.47640 20.65354 35.13999 22.68896
408 50.37230 73.62790 55.50640 32.21959 44.33325 31.57988
409 85.58440 79.66620 90.86550 65.64926 62.72619 90.77129
410 50.06420 0.000000 22.74020 10.96037 5.556055 4.834019
411 69.35950 0.000000 66.40810 28.09387 12.63010 44.82308
412 100.0000 0.000000 84.00860 59.42293 27.28802 75.44407
413 28.31810 91.67720 15.89230 34.67771 67.96878 8.171086
414 48.59900 89.90370 15.85010 38.21081 66.34816 7.595259
415 65.67570 88.64470 12.92440 45.15097 68.20784 6.895851
416 85.41250 89.25990 20.16000 58.98435 75.22314 8.182979
417 82.53480 92.58580 37.31660 59.99954 79.09248 16.24422
418 81.60890 100.0000 49.96830 66.45509 91.21802 26.70178
419 29.22610 14.13440 51.01690 8.335267 4.260080 25.35812
420 39.16170 26.19430 59.72160 13.84632 8.631665 35.80335
421 47.87630 63.06720 80.39860 32.49080 33.78188 69.02297
422 61.91320 66.84360 88.40130 43.15315 41.00664 85.00814
423 11.70240 44.80740 46.82040 10.69044 14.64437 21.72561
424 17.38480 51.34240 46.54380 13.19810 19.32298 21.85157
425 16.68700 65.19490 63.73790 22.41340 32.03446 43.17909
426 26.66640 66.39420 71.42820 26.10829 34.27758 54.04481
427 47.15940 68.55990 73.21780 32.67176 38.84536 56.93516
428 50.66840 83.04860 77.46600 43.26839 57.05719 64.87827
429 53.57500 88.07740 90.40480 52.95392 66.60283 92.40186
430 30.33200 19.91830 100.0000 25.68205 9.826391 118.2621
431 23.30230 14.09620 86.03550 17.53004 6.523244 82.67796
432 43.63910 27.32870 86.23090 23.49673 11.77002 81.73213
433 64.49140 40.18450 86.63560 34.72633 21.22958 81.03368
434 80.78560 49.67370 88.31220 48.26002 32.27645 84.09770
435 59.13430 0.000000 48.29060 18.23425 8.531127 22.53597
436 65.93810 17.22420 60.12680 24.63588 12.32935 35.70047
437 91.13210 18.90720 65.74430 44.70174 22.33346 43.10373
438 77.32270 44.37760 65.11310 37.26076 26.12431 42.16706
439 90.62780 55.22850 70.01810 52.27523 38.95822 49.35230
440 13.19150 0.000000 14.15950 1.382592 0.828560 2.293925
441 17.42050 7.162200 14.70080 1.946625 1.427550 2.392599
442 20.27870 28.53180 21.22080 4.722490 6.243212 4.576507
443 27.62280 46.00310 29.09530 10.50964 15.53292 8.712694
444 27.95580 100.0000 35.43360 42.09106 81.15875 17.17502
445 15.56960 52.41110 35.87510 12.01195 19.92301 13.35788
446 35.09880 55.85980 46.73070 17.73657 23.98364 21.51765
447 53.20770 63.91560 61.44020 29.86213 34.55722 38.39378
448 73.77510 86.32720 63.49650 53.58378 66.71931 42.08530
449 31.22330 75.78190 16.53580 23.78171 43.88912 6.086716
450 51.44090 76.68140 14.60200 30.38363 47.86615 5.656783
451 93.21660 78.48300 87.06330 70.30635 64.37231 81.21446
452 24.95560 0.000000 15.35880 2.976247 1.612598 2.584781
453 45.00780 11.22370 15.94800 8.894486 5.233106 2.679568
454 61.12710 13.73030 30.03560 17.22456 9.356559 8.457444
455 67.43990 51.76620 44.22380 29.29373 27.14787 18.39439
456 71.47180 71.34440 62.94730 43.46132 47.01486 40.70916
457 88.29000 78.75120 70.49790 60.84102 61.58499 51.48701
458 90.66820 24.39890 7.545300 38.39825 21.97580 1.248878
459 89.92830 35.06930 28.30840 39.67694 25.14268 7.128145
460 90.92090 48.79420 51.99090 46.59912 33.52319 25.09325
461 27.89030 78.52020 67.76170 31.80836 47.93642 49.38766
462 31.63860 88.61100 67.24390 39.32690 63.18996 48.58622
463 31.74550 92.99240 88.80470 49.40560 71.36547 88.67943
464 81.04850 62.50580 76.44590 48.87211 41.38588 60.41540
465 84.94700 65.81400 88.44100 57.52404 46.98874 84.63175
466 19.87040 20.95740 9.345400 3.043786 3.623541 1.564996
467 25.09870 22.61970 30.81190 5.378986 4.779468 9.382178
468 32.45460 32.39630 43.43570 10.08124 9.392006 18.38987
469 61.16760 37.44900 53.32190 23.20131 16.95968 26.97259
470 2.336400 0.000000 0.000000 0.460229 0.454282 0.475642
471 15.94000 11.37030 0.000000 1.731426 1.771416 0.584027
472 14.48880 38.35450 65.26980 13.19194 12.03688 44.26968
473 25.70350 53.75690 79.48580 23.18217 23.36097 68.04747
474 45.73350 64.78900 91.33210 36.96757 36.07797 94.36179
475 75.50820 68.54630 91.16370 53.22178 47.01427 91.38298
476 36.08740 15.58580 12.35030 6.000253 4.246485 1.893257
477 41.69970 25.20870 9.608900 8.568963 7.268584 1.645595
478 41.96130 26.94740 23.17230 9.486958 8.042475 5.138718
479 42.34660 31.73550 42.01180 12.37141 10.32190 16.77388
480 52.74600 33.39340 41.89020 16.70623 12.94782 16.49082
481 53.44520 53.87450 66.02420 26.93659 26.01436 44.38003
482 25.94220 49.21220 91.34650 26.55481 21.07403 95.72591
483 26.98070 60.42200 100.0000 34.62859 31.01748 116.8529
484 11.81750 7.953500 30.07210 2.671165 1.542024 9.200912
485 53.84560 38.06040 35.95330 17.28202 15.09878 12.15652
486 70.88670 42.94790 36.05320 27.78798 22.34967 11.96508
487 70.55860 46.18800 47.01800 29.75686 24.22806 20.82370
488 69.35960 49.18970 57.51800 31.85052 26.18077 32.39467
489 22.15740 31.75100 16.91690 5.405048 7.622981 3.338152
490 45.33400 45.69170 27.70700 15.22857 17.75268 7.845538
491 44.90450 50.43740 38.93130 17.71361 21.15570 14.80345
492 42.97200 86.43870 37.32470 34.99648 59.73729 16.24102
493 65.51010 87.59650 49.85070 46.65129 65.63635 25.71776
494 58.51830 75.34790 0.000000 32.66771 47.87187 4.254873
495 89.10020 80.49100 6.207100 55.97324 63.69428 5.046335
496 100.0000 87.89400 21.53640 71.64503 79.07730 8.293925
497 52.11330 33.07320 22.66330 14.46969 12.29263 5.022490
498 57.96800 44.24980 29.13570 20.21171 19.46648 8.288588
499 78.63530 44.09890 54.40840 35.78912 25.82206 28.30027
500 86.05120 58.44410 59.40480 46.56011 38.76452 34.09525
501 40.68420 30.66830 32.67710 10.47725 9.335189 10.03689
502 49.45870 73.83400 32.97170 28.78555 43.77380 12.25586
503 51.80970 77.71670 47.53340 33.74360 49.31206 23.32683
504 64.94130 86.18760 69.40860 49.79561 64.55462 50.84879
505 75.68170 87.68130 77.94190 59.40575 69.90648 64.93308
506 8.499000 30.79150 16.74270 3.998302 6.748250 3.422087
507 16.86820 39.92960 31.44800 7.625867 11.39561 10.06980
508 31.73060 41.30310 33.07840 10.47521 13.19579 10.66665
509 41.80300 43.99550 51.88590 16.52451 16.65691 25.95545
510 0.000000 57.22460 26.01350 12.32997 23.54796 8.060065
511 100.0000 58.21710 24.84230 56.22725 44.76713 6.513473
512 58.26200 14.06890 13.17190 14.80635 8.484974 2.049507
513 67.02980 16.07360 24.96490 20.46425 11.35888 5.680813
514 75.76250 16.22780 53.69270 29.40794 14.92523 27.70053
515 55.24230 17.53530 37.61460 15.21585 8.625093 13.16738
516 61.90880 23.05160 50.09560 20.88741 11.90879 23.66631
517 77.59040 30.71070 85.42620 41.08296 21.47098 78.54078
518 80.00160 30.11430 100.0000 49.09080 23.83320 114.6256
519 0.000000 0.000000 0.000000 0.409828 0.429471 0.475965
520 44.86360 15.64970 67.60480 16.70041 7.673688 47.57090
521 83.81370 16.67580 73.06540 40.12667 19.31989 54.35043
522 87.93760 39.44570 83.57340 49.47920 28.68054 73.04839
523 59.03870 13.07460 67.28970 22.74503 10.44584 47.26793
524 62.48760 28.30290 87.81580 32.39034 16.23850 85.27080
525 62.70050 77.88510 89.56440 49.87080 54.09854 88.29647
526 0.000000 29.66690 52.59290 7.843109 7.177608 27.72875
527 0.000000 47.73200 75.57580 18.44694 18.20847 62.11966
528 8.232300 57.77910 89.76260 27.43651 27.00261 92.04102
529 20.99150 78.17730 100.0000 42.86095 50.02668 117.5607
530 20.75310 69.41070 24.55960 18.90678 35.68296 8.233072
531 17.72500 85.34470 25.61970 28.58396 56.50216 10.25409
532 24.58440 90.02340 43.86980 34.81089 64.57457 22.28139
533 15.13590 72.48450 87.27680 33.65914 41.72091 86.45092
534 35.45150 77.70750 87.07200 39.17112 49.11431 84.77675
535 16.55340 91.79100 75.83750 42.50582 68.40111 63.79496
536 17.53050 92.03760 61.64420 39.09620 68.53334 41.73742
537 35.55370 100.0000 61.90710 47.77571 82.29786 42.52160
538 18.76910 55.58620 15.13800 11.98880 22.43234 4.145569
539 42.87170 64.78070 15.70200 20.91288 32.90052 4.807419
540 57.98980 65.37170 18.88600 27.47742 36.41626 5.452028
541 65.37560 100.0000 26.53670 54.42850 86.90252 12.25881
542 24.08910 41.15970 0.000000 7.521331 12.44116 1.475208
543 38.30030 49.92540 13.66640 13.61222 19.50689 3.388439
544 67.05790 49.89740 18.21070 26.38081 25.51358 4.048780
545 85.91670 53.16380 26.59170 40.73833 34.28879 7.207823
546 26.07740 15.01690 6.638400 3.468723 2.983582 1.154432
547 29.47880 18.09430 23.80510 5.139592 4.008314 5.535684
548 34.49850 20.59760 40.18940 8.277257 5.543324 15.28464
549 50.34830 36.41530 76.00680 23.82868 15.51236 61.04929
550 25.08450 0.000000 39.16000 5.243742 2.239035 15.40129
551 48.06080 14.10120 42.08280 12.50362 6.693477 16.81709
552 48.83210 17.53180 54.61990 15.23903 7.949377 29.34271
553 71.71710 33.84750 66.73380 31.90932 19.20339 44.78947
554 85.74320 35.06500 67.13700 42.09154 24.61700 44.81041
555 42.73270 9.092600 26.64120 8.580541 4.694871 6.764163
556 83.89560 14.96850 28.60630 32.13145 17.06329 7.267779
557 78.93320 23.78800 13.01610 28.13622 16.69977 2.026209
558 92.96290 52.60690 11.03960 46.96889 37.22101 2.900334
559 41.27200 36.99470 14.20970 10.71453 12.00178 2.723076
560 44.91500 36.66290 56.41780 16.80284 13.37117 31.63823
561 55.19630 44.58520 71.70770 26.71173 20.73034 53.46513
562 64.82080 53.86570 88.24260 39.64075 30.35315 85.48278
563 19.78340 21.66630 38.59730 5.335498 4.315279 14.54950
564 18.95460 28.15600 38.39570 6.246398 6.421578 14.57980
565 29.78210 34.53880 54.26240 11.73368 10.32261 29.26479
566 29.72310 56.74430 69.25730 21.99570 25.46133 50.70277
567 35.24370 79.37660 79.71360 37.17362 50.17765 68.88402
568 53.29700 62.94060 52.63200 27.58396 33.15349 27.26337
569 73.76640 66.92050 52.61330 40.62194 42.84368 26.96968
570 100.0000 70.13230 74.09660 68.88230 57.38671 56.43579
571 23.37960 11.02720 11.71960 2.911504 2.252352 1.846223
572 36.19210 13.94600 19.50880 6.226792 4.119204 3.732288
573 73.20260 21.25190 20.43240 24.49919 14.20420 3.772309
574 84.16850 72.78930 25.85360 48.01527 52.19847 8.318144
575 83.76780 85.56650 55.12790 58.17138 68.31407 31.32880
576 35.10020 57.88690 26.42600 16.45810 25.68783 7.930657
577 36.37030 61.68380 41.94750 19.74119 29.17255 17.88887
578 83.85000 65.71670 59.84270 48.36874 44.94368 35.62841
579 85.73350 66.78040 73.11940 53.59277 47.42362 54.61671
580 0.000000 79.90060 60.41270 29.46621 49.56893 39.76624
581 14.20030 83.35640 82.14520 37.99573 55.18684 74.69786
582 15.80800 89.22580 94.01850 47.68422 65.79862 104.2963
583 66.51030 60.26230 15.34450 30.02424 33.98903 4.217573
584 80.12550 60.22550 32.43280 39.32077 37.86688 10.54711
585 87.81600 84.52220 41.31900 58.88990 68.58530 17.86667
586 88.37150 98.28180 60.54220 72.64199 91.77972 38.61531
587 87.33740 100.0000 75.18810 76.78127 94.30629 61.39201
588 88.26030 100.0000 92.56310 83.01633 95.64080 95.77251
END_DATA
CAL    

DESCRIPTOR "Argyll Device Calibration State"
ORIGINATOR "Argyll dispread"
CREATED "Tue Feb 09 09:17:15 2021"
DEVICE_CLASS "DISPLAY"
COLOR_REP "RGB"

BEGIN_ARGYLL_DISPCAL_ARGS
-v2 -ql -m -w0.3127,0.329 -gs -f1.0 -k0 -A4.0 -d2 -c1 -yn -P0.499239543726,0.498947368421,1.62416107383
END_ARGYLL_DISPCAL_ARGS


NUMBER_OF_FIELDS 4
BEGIN_DATA_FORMAT
RGB_I RGB_R RGB_G RGB_B
END_DATA_FORMAT

NUMBER_OF_SETS 256
BEGIN_DATA
0.00000000 0.00000000 0.00000000 0.00000000
0.00392157 0.00326808 0.00323060 0.00328020
0.00784314 0.00650953 0.00644414 0.00652896
0.01176470 0.00972467 0.00964076 0.00974674
0.01568630 0.01291380 0.01282060 0.01293400
0.01960780 0.01607730 0.01598380 0.01609110
0.02352940 0.01921540 0.01913040 0.01921850
0.02745100 0.02232840 0.02226070 0.02231670
0.03137250 0.02541670 0.02537460 0.02538600
0.03529410 0.02848050 0.02847250 0.02842690
0.03921570 0.03152010 0.03155430 0.03143970
0.04313730 0.03453640 0.03462030 0.03442500
0.04705880 0.03753390 0.03767190 0.03738610
0.05098040 0.04051640 0.04071340 0.04032950
0.05490200 0.04348980 0.04375290 0.04326450
0.05882350 0.04645950 0.04679070 0.04619580
0.06274510 0.04942940 0.04982680 0.04912690
0.06666670 0.05240350 0.05286530 0.05206230
0.07058820 0.05538530 0.05591030 0.05500610
0.07450980 0.05837990 0.05896590 0.05796410
0.07843140 0.06139460 0.06204120 0.06094530
0.08235290 0.06443730 0.06514300 0.06395990
0.08627450 0.06751390 0.06827530 0.06701580
0.09019610 0.07062470 0.07144160 0.07011540
0.09411760 0.07377070 0.07463980 0.07325750
0.09803920 0.07695210 0.07786670 0.07643960
0.10196100 0.08016800 0.08111270 0.07965460
0.10588200 0.08341500 0.08437220 0.08289520
0.10980400 0.08669350 0.08765130 0.08615990
0.11372500 0.09000080 0.09095170 0.08944830
0.11764700 0.09333190 0.09427580 0.09275900
0.12156900 0.09668380 0.09762460 0.09609100
0.12549000 0.10005400 0.10099600 0.09944080
0.12941200 0.10344700 0.10438400 0.10280700
0.13333300 0.10686500 0.10778400 0.10618900
0.13725500 0.11030500 0.11119900 0.10958700
0.14117600 0.11377000 0.11463000 0.11300100
0.14509800 0.11725700 0.11807900 0.11643500
0.14902000 0.12076400 0.12154600 0.11988900
0.15294100 0.12429200 0.12502900 0.12336000
0.15686300 0.12783500 0.12852800 0.12684800
0.16078400 0.13139300 0.13204300 0.13035400
0.16470600 0.13496400 0.13557200 0.13387700
0.16862700 0.13854300 0.13911000 0.13741500
0.17254900 0.14213000 0.14265300 0.14096600
0.17647100 0.14572800 0.14620300 0.14452900
0.18039200 0.14933800 0.14976300 0.14810300
0.18431400 0.15296300 0.15333400 0.15168700
0.18823500 0.15660000 0.15692000 0.15528100
0.19215700 0.16025100 0.16052000 0.15888200
0.19607800 0.16391200 0.16413200 0.16249200
0.20000000 0.16757900 0.16775200 0.16610700
0.20392200 0.17124700 0.17137300 0.16972600
0.20784300 0.17491600 0.17499400 0.17335100
0.21176500 0.17859000 0.17861700 0.17698200
0.21568600 0.18227700 0.18225800 0.18063200
0.21960800 0.18597900 0.18591500 0.18430400
0.22352900 0.18970600 0.18959200 0.18800100
0.22745100 0.19346100 0.19329400 0.19173400
0.23137300 0.19724500 0.19702600 0.19550700
0.23529400 0.20105500 0.20079200 0.19932600
0.23921600 0.20488800 0.20459800 0.20318600
0.24313700 0.20874200 0.20844600 0.20708300
0.24705900 0.21261700 0.21233600 0.21101800
0.25098000 0.21651400 0.21626400 0.21498700
0.25490200 0.22043900 0.22022600 0.21898700
0.25882400 0.22438100 0.22421900 0.22301800
0.26274500 0.22833500 0.22822700 0.22705800
0.26666700 0.23230500 0.23224500 0.23110400
0.27058800 0.23628700 0.23625900 0.23514700
0.27451000 0.24027700 0.24025500 0.23917200
0.27843100 0.24427300 0.24422400 0.24317400
0.28235300 0.24827500 0.24816400 0.24715100
0.28627500 0.25227400 0.25207500 0.25110400
0.29019600 0.25625400 0.25596200 0.25502000
0.29411800 0.26021600 0.25981500 0.25888800
0.29803900 0.26415900 0.26363700 0.26271100
0.30196100 0.26807800 0.26742900 0.26649100
0.30588200 0.27196700 0.27118900 0.27022800
0.30980400 0.27582100 0.27492000 0.27392600
0.31372500 0.27964600 0.27862700 0.27758400
0.31764700 0.28345100 0.28231800 0.28121100
0.32156900 0.28722200 0.28600100 0.28481600
0.32549000 0.29095400 0.28967500 0.28839700
0.32941200 0.29465800 0.29334100 0.29195400
0.33333300 0.29833700 0.29700300 0.29549300
0.33725500 0.30199800 0.30067000 0.29902400
0.34117600 0.30564500 0.30433300 0.30254500
0.34509800 0.30927800 0.30798700 0.30605600
0.34902000 0.31290600 0.31163200 0.30955800
0.35294100 0.31653200 0.31526800 0.31305100
0.35686300 0.32015200 0.31890000 0.31654600
0.36078400 0.32376600 0.32252400 0.32004100
0.36470600 0.32737200 0.32613700 0.32353300
0.36862700 0.33097200 0.32973900 0.32702100
0.37254900 0.33457000 0.33332900 0.33050700
0.37647100 0.33817000 0.33691500 0.33399100
0.38039200 0.34177200 0.34050300 0.33748100
0.38431400 0.34537600 0.34409800 0.34098000
0.38823500 0.34898000 0.34769900 0.34448900
0.39215700 0.35258100 0.35131400 0.34801000
0.39607800 0.35617300 0.35494800 0.35154600
0.40000000 0.35976100 0.35859400 0.35509400
0.40392200 0.36335000 0.36224400 0.35864200
0.40784300 0.36694600 0.36590400 0.36219200
0.41176500 0.37055300 0.36957300 0.36574600
0.41568600 0.37416700 0.37325200 0.36930500
0.41960800 0.37778300 0.37693900 0.37286900
0.42352900 0.38139800 0.38063400 0.37643900
0.42745100 0.38501000 0.38433500 0.38001200
0.43137300 0.38862500 0.38803500 0.38358500
0.43529400 0.39225000 0.39172600 0.38715100
0.43921600 0.39588700 0.39541500 0.39070800
0.44313700 0.39952500 0.39910200 0.39426500
0.44705900 0.40315200 0.40278300 0.39782400
0.45098000 0.40677000 0.40644300 0.40139000
0.45490200 0.41038500 0.41008100 0.40495000
0.45882400 0.41400500 0.41370200 0.40850600
0.46274500 0.41763100 0.41731500 0.41206400
0.46666700 0.42125900 0.42093000 0.41564000
0.47058800 0.42489100 0.42455200 0.41923300
0.47451000 0.42853200 0.42818700 0.42284600
0.47843100 0.43218400 0.43183900 0.42648000
0.48235300 0.43585300 0.43551100 0.43013700
0.48627500 0.43955200 0.43920500 0.43381700
0.49019600 0.44327500 0.44292800 0.43752400
0.49411800 0.44701600 0.44668300 0.44126900
0.49803900 0.45077900 0.45045600 0.44505800
0.50196100 0.45455900 0.45425200 0.44887000
0.50588200 0.45835700 0.45807800 0.45270900
0.50980400 0.46217200 0.46193500 0.45657800
0.51372500 0.46600400 0.46582200 0.46047800
0.51764700 0.46984600 0.46973900 0.46440600
0.52156900 0.47369500 0.47368900 0.46836600
0.52549000 0.47754900 0.47765900 0.47235100
0.52941200 0.48140600 0.48164600 0.47635200
0.53333300 0.48526300 0.48564500 0.48036500
0.53725500 0.48912200 0.48965400 0.48438900
0.54117600 0.49298200 0.49367400 0.48842100
0.54509800 0.49684600 0.49770400 0.49246200
0.54902000 0.50071300 0.50174300 0.49651200
0.55294100 0.50458200 0.50577600 0.50057200
0.55686300 0.50845300 0.50979700 0.50463200
0.56078400 0.51232600 0.51380600 0.50868900
0.56470600 0.51620300 0.51780500 0.51274200
0.56862700 0.52008700 0.52179300 0.51679100
0.57254900 0.52397900 0.52577400 0.52083700
0.57647100 0.52788400 0.52975400 0.52488500
0.58039200 0.53180000 0.53374200 0.52893600
0.58431400 0.53572300 0.53774000 0.53300300
0.58823500 0.53965300 0.54174100 0.53708500
0.59215700 0.54359400 0.54573000 0.54117100
0.59607800 0.54754900 0.54970500 0.54525600
0.60000000 0.55151800 0.55366800 0.54933700
0.60392200 0.55550000 0.55762700 0.55341600
0.60784300 0.55949400 0.56158100 0.55749300
0.61176500 0.56351400 0.56552800 0.56156800
0.61568600 0.56756500 0.56947200 0.56564700
0.61960800 0.57163000 0.57341400 0.56974200
0.62352900 0.57571100 0.57735300 0.57385100
0.62745100 0.57981400 0.58129700 0.57797600
0.63137300 0.58394200 0.58525200 0.58212900
0.63529400 0.58808400 0.58922900 0.58631700
0.63921600 0.59223900 0.59321800 0.59053300
0.64313700 0.59640600 0.59721100 0.59476400
0.64705900 0.60057900 0.60120700 0.59900900
0.65098000 0.60475600 0.60521100 0.60326000
0.65490200 0.60893800 0.60922700 0.60751400
0.65882400 0.61312900 0.61325700 0.61177400
0.66274500 0.61732700 0.61730800 0.61604700
0.66666700 0.62153200 0.62138200 0.62033300
0.67058800 0.62573400 0.62548000 0.62463600
0.67451000 0.62993400 0.62960100 0.62895200
0.67843100 0.63412700 0.63374600 0.63328200
0.68235300 0.63830600 0.63791600 0.63762800
0.68627500 0.64247300 0.64211500 0.64198300
0.69019600 0.64664400 0.64633500 0.64633800
0.69411800 0.65082900 0.65057600 0.65071400
0.69803900 0.65503600 0.65486100 0.65512900
0.70196100 0.65926300 0.65920400 0.65959800
0.70588200 0.66349000 0.66361200 0.66412200
0.70980400 0.66769700 0.66808100 0.66867200
0.71372500 0.67188300 0.67258200 0.67320800
0.71764700 0.67605500 0.67710400 0.67773200
0.72156900 0.68022300 0.68164800 0.68225300
0.72549000 0.68440200 0.68622400 0.68678800
0.72941200 0.68859700 0.69083700 0.69135500
0.73333300 0.69280200 0.69549000 0.69594100
0.73725500 0.69702000 0.70016400 0.70053600
0.74117600 0.70125300 0.70484900 0.70513800
0.74509800 0.70549200 0.70953100 0.70973300
0.74902000 0.70974100 0.71419100 0.71431800
0.75294100 0.71400500 0.71882700 0.71889200
0.75686300 0.71828200 0.72344400 0.72345100
0.76078400 0.72258000 0.72804000 0.72800500
0.76470600 0.72690400 0.73262200 0.73255500
0.76862700 0.73125600 0.73719900 0.73711000
0.77254900 0.73563500 0.74178100 0.74166500
0.77647100 0.74004000 0.74636500 0.74621500
0.78039200 0.74446300 0.75094800 0.75075600
0.78431400 0.74888200 0.75552500 0.75526200
0.78823500 0.75329700 0.76009300 0.75972800
0.79215700 0.75771000 0.76465700 0.76415900
0.79607800 0.76213400 0.76923100 0.76857500
0.80000000 0.76657600 0.77383000 0.77297800
0.80392200 0.77103800 0.77845000 0.77737100
0.80784300 0.77551900 0.78309300 0.78175700
0.81176500 0.78001400 0.78776100 0.78613100
0.81568600 0.78452700 0.79244800 0.79049300
0.81960800 0.78906900 0.79715100 0.79485200
0.82352900 0.79364200 0.80187000 0.79920900
0.82745100 0.79821700 0.80657900 0.80355400
0.83137300 0.80279100 0.81127500 0.80788900
0.83529400 0.80737900 0.81597200 0.81223100
0.83921600 0.81199300 0.82067900 0.81659500
0.84313700 0.81662400 0.82539900 0.82097900
0.84705900 0.82126000 0.83011500 0.82537300
0.85098000 0.82589900 0.83481900 0.82976500
0.85490200 0.83053000 0.83950100 0.83415700
0.85882400 0.83515800 0.84416100 0.83854800
0.86274500 0.83978200 0.84880100 0.84294400
0.86666700 0.84440200 0.85340600 0.84733500
0.87058800 0.84902400 0.85798600 0.85171500
0.87451000 0.85362700 0.86254500 0.85609300
0.87843100 0.85820700 0.86708100 0.86046400
0.88235300 0.86276800 0.87160200 0.86483400
0.88627500 0.86730200 0.87611000 0.86920600
0.89019600 0.87179800 0.88060500 0.87357700
0.89411800 0.87625200 0.88508500 0.87794500
0.89803900 0.88067600 0.88956800 0.88230700
0.90196100 0.88505600 0.89405000 0.88668400
0.90588200 0.88939100 0.89851900 0.89106100
0.90980400 0.89368600 0.90297400 0.89543000
0.91372500 0.89795000 0.90740100 0.89979300
0.91764700 0.90218900 0.91180200 0.90415000
0.92156900 0.90640700 0.91617400 0.90850500
0.92549000 0.91061200 0.92052300 0.91285600
0.92941200 0.91480900 0.92486500 0.91720500
0.93333300 0.91900000 0.92920300 0.92156200
0.93725500 0.92319000 0.93353500 0.92592900
0.94117600 0.92737300 0.93785200 0.93030700
0.94509800 0.93155100 0.94215200 0.93469200
0.94902000 0.93572400 0.94642600 0.93908800
0.95294100 0.93989300 0.95067400 0.94348800
0.95686300 0.94405700 0.95490500 0.94789600
0.96078400 0.94821400 0.95912100 0.95231000
0.96470600 0.95236100 0.96331900 0.95673000
0.96862700 0.95649400 0.96750000 0.96115100
0.97254900 0.96061500 0.97166500 0.96557500
0.97647100 0.96472800 0.97581600 0.97000300
0.98039200 0.96883300 0.97995200 0.97443600
0.98431400 0.97292900 0.98407500 0.97887500
0.98823500 0.97701600 0.98818300 0.98331800
0.99215700 0.98109600 0.99227800 0.98776700
0.99607800 0.98516600 0.99635900 0.99222000
1.00000000 0.98922900 1.00000000 0.99667900
END_DATA
