CTI3   

DESCRIPTOR "Argyll Calibration Target chart information 3"
ORIGINATOR "Argyll dispread"
CREATED "Tue May 26 14:52:48 2020"
DEVICE_CLASS "DISPLAY"
SINGLE_DIM_STEPS "25"
COMP_GREY_STEPS "73"
DARK_REGION_EMPHASIS "1.6"
COLOR_REP "RGB_XYZ"
TARGET_INSTRUMENT "X-Rite i1 DisplayPro, ColorMunki Display"
DISPLAY_TYPE_REFRESH "NO"
DISPLAY_TYPE_BASE_ID "1"
INSTRUMENT_TYPE_SPECTRAL "NO"
LUMINANCE_XYZ_CDM2 "203.497609 214.053489 235.096144"
NORMALIZED_TO_Y_100 "YES"
VIDEO_LUT_CALIBRATION_POSSIBLE "YES"

BEGIN_ARGYLL_COLPROF_ARGS
-v -qh -aX -bn -C "No copyright. Created with DisplayCAL 3.8.9.3 and ArgyllCMS 2.1.2" -M "DELL P2417H" -A "Dell, Inc."
END_ARGYLL_COLPROF_ARGS

OBSERVER "1931_2"
USE_BLACK_POINT_COMPENSATION "NO"
BLACK_POINT_CORRECTION "0.0"
HIRES_B2A "YES"
HIRES_B2A_SIZE "-1"
SMOOTH_B2A "YES"
PATCH_SEQUENCE "OPTIMIZE_DISPLAY_RESPONSE_DELAY"

NUMBER_OF_FIELDS 7
BEGIN_DATA_FORMAT
SAMPLE_ID RGB_R RGB_G RGB_B XYZ_X XYZ_Y XYZ_Z
END_DATA_FORMAT

NUMBER_OF_SETS 825
BEGIN_DATA
1 100.0000 100.0000 100.0000 95.06858 100.0000 109.8306
2 1.960800 1.960800 1.960800 0.237978 0.235038 0.401343
3 3.921600 3.921600 3.921600 0.383452 0.390512 0.571712
4 5.882400 5.882400 5.882400 0.562428 0.578143 0.777828
5 9.803900 9.803900 9.803900 1.031329 1.074598 1.294511
6 13.72600 13.72600 13.72600 1.687454 1.759782 2.050384
7 17.64700 17.64700 17.64700 2.577562 2.676717 3.087656
8 21.56900 21.56900 21.56900 3.645969 3.793657 4.347987
9 25.49000 25.49000 25.49000 4.956988 5.176664 5.873409
10 29.41200 29.41200 29.41200 6.651144 7.025556 7.838566
11 33.33300 33.33300 33.33300 8.579680 9.008308 10.08980
12 37.25500 37.25500 37.25500 10.86207 11.41867 12.61461
13 41.17600 41.17600 41.17600 13.37632 14.03773 15.49111
14 45.09800 45.09800 45.09800 16.05676 16.91779 18.46799
15 49.02000 49.02000 49.02000 19.46858 20.43958 22.47170
16 52.94100 52.94100 52.94100 22.86431 24.04973 26.38832
17 56.86300 56.86300 56.86300 26.98078 28.30127 31.28168
18 60.78400 60.78400 60.78400 31.05027 32.69457 36.00050
19 64.70600 64.70600 64.70600 35.78158 37.68743 41.16336
20 68.62700 68.62700 68.62700 40.86364 43.07056 47.21556
21 72.54900 72.54900 72.54900 46.17333 48.63132 52.82319
22 76.47100 76.47100 76.47100 51.92390 54.66865 59.40906
23 80.39200 80.39200 80.39200 58.04288 60.98250 66.52684
24 84.31400 84.31400 84.31400 64.54635 67.77110 74.35724
25 88.23500 88.23500 88.23500 71.46308 75.37436 82.01738
26 92.15700 92.15700 92.15700 78.70623 82.85390 90.64742
27 96.07800 96.07800 96.07800 86.97193 91.37604 99.54579
28 0.000000 100.0000 56.65490 37.84145 69.30886 34.10193
29 46.02260 100.0000 60.25940 46.18521 73.79987 38.75535
30 64.92250 100.0000 82.23970 61.58493 81.88318 72.39369
31 6.720100 25.86900 28.23190 3.351146 4.310189 7.117035
32 26.17130 57.25610 33.11030 13.28914 21.06180 10.82452
33 50.41020 80.93360 33.92200 30.60273 46.68714 13.23598
34 79.71010 0.000000 60.59150 31.68904 17.25547 34.12043
35 86.00330 17.15870 88.44720 46.42273 25.85939 78.78696
36 100.0000 27.14850 100.0000 65.06273 37.49441 105.1551
37 0.000000 9.193300 16.86960 0.881543 0.902761 2.709396
38 0.000000 24.57100 41.57920 4.520478 4.557735 14.92502
39 0.000000 28.22860 56.04490 7.769120 6.914901 28.36396
40 0.000000 61.03800 100.0000 31.78145 31.76771 106.1006
41 50.83730 77.30890 100.0000 48.35920 52.11572 107.0768
42 18.51850 0.000000 0.000000 1.218812 0.728790 0.284165
43 21.42860 0.000000 0.000000 1.628555 0.958334 0.285038
44 24.50980 0.000000 0.000000 2.031309 1.184999 0.286282
45 27.77780 0.000000 0.000000 2.640571 1.529157 0.288172
46 31.25000 0.000000 0.000000 3.264990 1.880596 0.289137
47 34.94620 0.000000 0.000000 4.057409 2.327905 0.291531
48 38.88890 0.000000 0.000000 5.073573 2.900710 0.294338
49 43.10350 0.000000 0.000000 6.410919 3.653986 0.298257
50 47.61910 0.000000 0.000000 7.693347 4.381768 0.302143
51 52.46910 0.000000 0.000000 9.588722 5.446431 0.308266
52 57.69230 0.000000 0.000000 11.91243 6.752558 0.314740
53 63.33330 0.000000 0.000000 14.58610 8.265087 0.323147
54 69.44440 0.000000 0.000000 18.01314 10.19771 0.333465
55 76.08700 0.000000 0.000000 22.22965 12.57018 0.345173
56 83.33330 0.000000 0.000000 27.29572 15.43121 0.361606
57 82.83610 0.000000 33.43940 29.06419 16.23716 9.715606
58 81.58400 0.000000 48.19400 30.39279 16.80102 20.45983
59 87.08190 13.43140 57.77760 37.06988 21.12754 30.72939
60 55.78250 0.000000 12.57400 11.46234 6.476780 1.733020
61 77.89700 0.000000 16.99150 24.13946 13.59718 2.779513
62 94.00920 17.83960 37.32890 39.59820 23.40429 12.39832
63 0.000000 10.68380 0.000000 0.467460 0.822469 0.332981
64 0.000000 13.15790 0.000000 0.610892 1.120703 0.354882
65 0.000000 15.76580 0.000000 0.781476 1.477043 0.382153
66 0.000000 18.51850 0.000000 0.967602 1.864887 0.410769
67 0.000000 21.42860 0.000000 1.252773 2.460580 0.455029
68 0.000000 24.50980 0.000000 1.539099 3.056143 0.498159
69 0.000000 27.77780 0.000000 2.017194 4.051790 0.572603
70 0.000000 31.25000 0.000000 2.492175 5.040154 0.646162
71 0.000000 34.94620 0.000000 3.135178 6.383085 0.744814
72 0.000000 38.88890 0.000000 3.845566 7.862244 0.854818
73 0.000000 43.10350 0.000000 4.826933 9.865820 1.003525
74 0.000000 47.61910 0.000000 5.904033 12.16794 1.175797
75 0.000000 52.46910 0.000000 7.385200 15.23523 1.401489
76 0.000000 57.69230 0.000000 9.050245 18.72170 1.661120
77 0.000000 63.33330 0.000000 11.15069 23.04323 1.983066
78 0.000000 69.44440 0.000000 13.81605 28.65716 2.400035
79 0.000000 76.08700 0.000000 16.93204 35.14108 2.881665
80 0.000000 83.33330 0.000000 20.66662 42.87921 3.456334
81 0.000000 91.26980 0.000000 25.72326 53.47835 4.247546
82 0.000000 100.0000 40.94180 34.73121 67.65826 19.38357
83 36.18930 100.0000 41.13270 39.43335 70.39985 19.89042
84 68.66040 100.0000 68.70510 59.26403 81.17760 50.48761
85 0.000000 0.000000 6.097600 0.228667 0.159184 0.780164
86 0.000000 0.000000 8.333300 0.271659 0.179808 0.993474
87 0.000000 0.000000 10.68380 0.339755 0.211656 1.331540
88 0.000000 0.000000 13.15790 0.435470 0.254366 1.808690
89 0.000000 0.000000 15.76580 0.554216 0.310612 2.393667
90 0.000000 0.000000 18.51850 0.697417 0.376802 3.096610
91 0.000000 0.000000 21.42860 0.893822 0.469470 4.064046
92 0.000000 0.000000 24.50980 1.086640 0.559098 5.026889
93 0.000000 0.000000 27.77780 1.356144 0.684558 6.350495
94 0.000000 0.000000 31.25000 1.738010 0.862804 8.250928
95 0.000000 0.000000 34.94620 2.116481 1.039036 10.12088
96 0.000000 0.000000 38.88890 2.620996 1.275886 12.60868
97 0.000000 0.000000 43.10350 3.279372 1.583774 15.84775
98 0.000000 0.000000 47.61910 3.938398 1.892319 19.10458
99 0.000000 0.000000 52.46910 4.940219 2.360994 24.06906
100 0.000000 0.000000 57.69230 6.071088 2.889577 29.65406
101 0.000000 0.000000 63.33330 7.493965 3.549864 36.65735
102 0.000000 0.000000 69.44440 9.229911 4.357673 45.25645
103 0.000000 0.000000 76.08700 11.18994 5.261914 54.91916
104 0.000000 0.000000 83.33330 13.75382 6.443642 67.59596
105 0.000000 0.000000 91.26980 17.06127 7.934509 83.90674
106 0.000000 0.000000 100.0000 21.19056 9.753044 104.3833
107 59.48400 0.000000 100.0000 34.14749 17.04366 104.3077
108 85.61510 61.71560 100.0000 61.70230 49.16845 107.0008
109 100.0000 64.33550 100.0000 75.41408 58.76379 107.3962
110 2.604200 2.604200 2.604200 0.292421 0.283709 0.457114
111 3.280800 3.280800 3.280800 0.323457 0.328924 0.497430
112 3.968300 3.968300 3.968300 0.382121 0.389345 0.570319
113 4.666700 4.666700 4.666700 0.431508 0.444214 0.621930
114 5.376300 5.376300 5.376300 0.508646 0.525636 0.711259
115 6.097600 6.097600 6.097600 0.602523 0.619951 0.819387
116 6.830600 6.830600 6.830600 0.644070 0.654369 0.843682
117 7.575800 7.575800 7.575800 0.720569 0.744935 0.938719
118 8.333300 8.333300 8.333300 0.838393 0.860726 1.054935
119 9.103600 9.103600 9.103600 0.939696 0.975663 1.184883
120 9.887000 9.887000 9.887000 1.027517 1.070778 1.291818
121 10.68380 10.68380 10.68380 1.158462 1.202614 1.428161
122 11.49420 11.49420 11.49420 1.251127 1.278286 1.587314
123 12.31880 12.31880 12.31880 1.392946 1.440309 1.724170
124 13.15790 13.15790 13.15790 1.583831 1.650777 1.936252
125 14.01180 14.01180 14.01180 1.768448 1.846183 2.133807
126 14.88100 14.88100 14.88100 1.942558 2.034595 2.328495
127 15.76580 15.76580 15.76580 2.103422 2.202243 2.551243
128 16.66670 16.66670 16.66670 2.344559 2.443377 2.816933
129 17.58410 17.58410 17.58410 2.567749 2.667415 3.083901
130 18.51850 18.51850 18.51850 2.708049 2.838210 3.320014
131 19.47040 19.47040 19.47040 3.071354 3.250611 3.656529
132 20.44020 20.44020 20.44020 3.322709 3.498331 3.949721
133 21.42860 21.42860 21.42860 3.634426 3.781028 4.341978
134 22.43590 22.43590 22.43590 3.845514 4.025279 4.562395
135 23.46280 23.46280 23.46280 4.302558 4.492728 5.104688
136 24.50980 24.50980 24.50980 4.552169 4.760218 5.381804
137 25.57760 25.57760 25.57760 4.944673 5.161529 5.870274
138 26.66670 26.66670 26.66670 5.421354 5.665680 6.420584
139 27.77780 27.77780 27.77780 5.999021 6.304680 6.974258
140 28.91160 28.91160 28.91160 6.488681 6.827120 7.598879
141 30.06870 30.06870 30.06870 6.998677 7.309004 8.345401
142 31.25000 31.25000 31.25000 7.600344 7.931053 8.953620
143 32.45610 32.45610 32.45610 8.163948 8.535103 9.564691
144 33.68790 33.68790 33.68790 8.853361 9.264102 10.38338
145 34.94620 34.94620 34.94620 9.467439 9.941752 11.11331
146 36.23190 36.23190 36.23190 10.14065 10.65027 11.72817
147 37.54580 37.54580 37.54580 11.05004 11.64191 12.90092
148 38.88890 38.88890 38.88890 11.73038 12.30174 13.81560
149 40.26220 40.26220 40.26220 12.75917 13.35515 14.76359
150 41.66670 41.66670 41.66670 13.70312 14.36238 15.90232
151 43.10350 43.10350 43.10350 14.79511 15.47223 17.20618
152 44.57360 44.57360 44.57360 15.88300 16.68525 18.28262
153 46.07840 46.07840 46.07840 16.74066 17.60634 19.35040
154 47.61910 47.61910 47.61910 18.06352 18.99366 20.86281
155 49.19680 49.19680 49.19680 19.43875 20.41711 22.55260
156 50.81300 50.81300 50.81300 21.01975 22.11721 24.33267
157 52.46910 52.46910 52.46910 22.39099 23.57496 25.93431
158 54.16670 54.16670 54.16670 24.08085 25.36193 27.89175
159 55.90720 55.90720 55.90720 26.07183 27.35429 30.20317
160 57.69230 57.69230 57.69230 27.58822 29.02335 32.07249
161 59.52380 59.52380 59.52380 29.63313 31.31290 34.21051
162 61.40350 61.40350 61.40350 32.07706 33.77657 37.23320
163 63.33330 63.33330 63.33330 33.95107 35.70176 39.45649
164 65.31530 65.31530 65.31530 36.57004 38.54440 42.21652
165 67.35160 67.35160 67.35160 39.17263 41.37751 45.42055
166 69.44440 69.44440 69.44440 41.87072 44.18827 48.62275
167 71.59620 71.59620 71.59620 45.03159 47.47417 51.73708
168 73.80950 73.80950 73.80950 47.86145 50.38702 55.02776
169 76.08700 76.08700 76.08700 51.26821 53.99079 58.67637
170 78.43140 78.43140 78.43140 54.95574 57.82473 63.03482
171 80.84580 80.84580 80.84580 58.63245 61.58945 67.48107
172 83.33330 83.33330 83.33330 62.70178 65.85797 72.28491
173 85.89740 85.89740 85.89740 67.30505 70.63835 77.26675
174 88.54170 88.54170 88.54170 72.19446 76.11320 83.05495
175 91.26980 91.26980 91.26980 77.22762 81.30076 89.10247
176 94.08600 94.08600 94.08600 82.64571 87.15856 94.80023
177 96.99450 96.99450 96.99450 88.72623 93.34573 101.8252
178 15.34040 27.34700 0.000000 2.802869 4.451083 0.570652
179 37.50020 31.71630 0.000000 7.228824 7.893750 0.676941
180 55.91360 43.67310 0.000000 16.22938 16.64498 1.070888
181 56.39720 64.43050 53.73510 28.93725 33.84261 28.13754
182 60.59960 68.11150 72.79140 37.71983 40.90651 53.51423
183 28.11410 81.90620 75.73200 34.25500 48.90108 58.58469
184 42.64530 89.87530 79.84860 44.24702 61.56302 66.72400
185 59.69790 52.90370 59.67690 27.32200 26.44806 33.80898
186 75.42050 58.31710 72.05620 41.78476 37.21168 51.70308
187 46.43330 38.25010 48.26780 15.65503 14.36518 21.53215
188 52.94830 43.20340 48.13450 19.10412 17.88458 21.36096
189 53.33110 74.26650 48.97820 30.79924 41.57151 23.97729
190 62.02620 77.91460 72.10710 42.74100 50.75197 52.80381
191 63.70500 85.05060 72.19180 47.33896 59.10848 53.40661
192 44.37280 61.73020 67.24130 26.39446 30.37221 44.27686
193 42.71350 90.78660 72.51250 42.53162 61.92586 54.94802
194 0.000000 100.0000 72.87890 42.21899 71.23446 55.99706
195 32.83440 100.0000 80.99240 48.99480 74.98270 70.25069
196 0.000000 72.17780 55.50170 20.73729 34.05069 30.13092
197 27.62310 80.68280 57.44450 28.27045 45.01507 33.12982
198 0.000000 85.00970 58.26020 28.20829 48.46146 34.60923
199 7.526300 89.28380 83.58890 39.00588 58.02029 73.13710
200 0.000000 100.0000 100.0000 53.13987 76.29052 109.7183
201 14.50940 75.59090 46.88610 21.75867 37.62626 22.27357
202 25.64360 100.0000 51.76730 39.07888 70.17954 29.03693
203 0.000000 100.0000 0.000000 31.81407 66.27492 5.216859
204 29.04400 100.0000 0.000000 34.64424 67.90379 5.226937
205 50.62500 100.0000 0.000000 40.85119 71.45625 5.252389
206 68.56330 100.0000 0.000000 49.59271 76.43785 5.284221
207 10.32050 42.04780 48.57940 9.378923 11.85300 21.76349
208 26.28470 48.92160 56.20150 14.60758 17.45308 29.59064
209 55.03130 67.60650 90.95410 41.27413 41.76315 85.70297
210 69.92780 77.61540 100.0000 58.03558 57.93011 107.3816
211 14.74750 4.231900 9.578400 1.208212 0.856748 1.203784
212 16.87480 10.07110 11.56660 1.682489 1.464390 1.568268
213 50.93440 47.20210 10.30810 15.21612 17.49590 2.229424
214 62.78170 60.36630 26.93800 26.20211 30.21260 7.964217
215 78.99190 64.75520 32.76740 38.17897 39.60287 11.38408
216 46.63910 7.553200 35.74750 9.956628 5.763513 10.93407
217 64.45390 0.000000 34.73170 17.41313 9.661717 10.40779
218 73.25770 11.94380 36.57790 23.43910 13.63994 11.46917
219 78.79380 29.34340 36.47970 28.98502 19.59065 11.97163
220 90.11200 46.61320 34.22420 40.86112 31.79989 11.24336
221 55.29280 26.85210 15.64690 13.22847 10.15360 2.795853
222 63.03840 37.38870 25.90250 19.57903 16.48901 6.487439
223 70.97790 37.07820 51.68040 27.71605 20.73595 24.56219
224 49.15180 28.66070 69.63180 20.16893 13.70854 46.93318
225 50.00260 39.50560 76.88700 24.74761 19.09085 57.96284
226 46.40510 68.12330 0.000000 20.73117 31.92567 2.356191
227 60.81900 83.05330 0.000000 34.27831 50.81795 3.525080
228 74.00170 86.27340 12.23820 44.00760 58.98555 5.210772
229 85.21890 100.0000 23.23570 61.94451 83.44532 9.929775
230 0.000000 23.08560 83.81590 15.49611 9.402856 69.83865
231 10.87060 66.17980 93.30700 31.22371 35.12905 90.62835
232 26.88930 69.89960 100.0000 38.09024 40.93627 106.8684
233 28.21790 23.89120 100.0000 25.46505 14.41898 104.8403
234 28.66500 51.96790 100.0000 31.67185 27.09055 106.1125
235 0.000000 13.19210 38.53290 3.090226 2.282521 12.58235
236 11.96850 20.95190 41.91950 4.823309 4.134443 15.38725
237 55.78380 21.41240 49.53240 16.80172 10.91351 21.72296
238 68.67680 22.18400 54.84420 24.63642 15.32509 27.62582
239 78.33150 33.48350 60.68020 34.02704 22.96058 34.80203
240 31.95360 47.09450 10.87460 9.596260 14.32829 2.388793
241 32.32560 58.68870 11.07180 13.39312 22.06295 2.932606
242 49.30990 100.0000 24.68140 41.83515 72.03201 10.46969
243 83.85860 100.0000 78.23760 72.51601 88.29837 65.40913
244 0.000000 0.000000 0.000000 0.126882 0.111666 0.280430
245 0.000000 0.000000 1.938000 0.151107 0.123103 0.395044
246 0.000000 0.000000 3.968300 0.180903 0.137221 0.539749
247 0.000000 11.16480 11.27600 0.730862 0.973139 1.558262
248 23.50200 23.85630 30.88050 5.052521 4.921736 8.566150
249 52.66450 49.21040 64.26160 24.25053 22.79456 39.74311
250 68.08440 61.95060 71.88720 38.68624 37.51043 51.22278
251 0.000000 29.64560 27.69570 3.560438 5.242944 6.814612
252 40.37800 57.88350 27.03390 16.31442 23.30741 7.841307
253 78.69740 71.28620 28.46970 40.73522 45.48679 9.562179
254 85.51650 77.52850 50.40470 52.05885 56.33926 26.03111
255 85.14070 87.78180 58.77730 59.27666 68.76845 35.80706
256 84.56200 90.79960 78.13440 66.67923 75.35385 63.77156
257 72.23000 72.46870 37.14520 37.83073 44.57053 14.63628
258 92.52590 85.70300 63.57080 65.12962 70.14590 42.04438
259 13.97410 20.94360 12.94630 2.243201 2.944123 1.933628
260 12.68060 41.47350 23.20970 6.053308 10.09564 5.392916
261 24.82680 46.31140 24.80870 8.888105 13.57213 6.230272
262 31.90070 78.84820 41.38200 25.10234 41.95578 18.12232
263 34.07360 88.34100 55.87380 33.78273 54.95582 32.05836
264 28.52910 5.476200 10.13490 3.153238 2.002447 1.311356
265 30.87670 13.76600 12.57150 4.104255 3.125008 1.772244
266 38.17090 19.19930 20.96100 6.663299 5.198915 4.062338
267 61.00750 33.25530 36.05920 18.80619 14.76106 11.64224
268 63.29010 33.76480 54.11950 23.20317 17.07619 27.14446
269 71.37880 89.16880 100.0000 65.69234 72.15783 108.9242
270 0.000000 69.53030 83.38030 27.99779 35.56083 71.32996
271 8.088800 82.65170 90.54570 37.78785 51.08162 85.82408
272 24.46830 91.53670 100.0000 49.36596 65.04678 109.1432
273 68.44340 100.0000 100.0000 71.51612 86.85859 110.1475
274 7.426100 13.90900 7.490500 1.049728 1.408587 0.962521
275 16.96720 15.54510 8.253900 1.917709 2.142622 1.122601
276 91.26980 0.000000 0.000000 33.83405 19.11191 0.384715
277 100.0000 0.000000 0.000000 41.81944 23.63082 0.419455
278 100.0000 41.30100 15.57280 46.88864 33.25169 3.409132
279 34.97720 34.59490 44.16980 10.74608 10.43273 17.40610
280 35.12750 45.72870 63.71570 17.59824 17.78294 38.51766
281 23.02980 54.58550 86.00560 24.93892 25.07630 74.48559
282 25.99170 63.49880 85.61370 28.54858 32.23748 74.28436
283 51.70350 77.72790 86.89120 43.07182 50.12233 78.62441
284 57.11210 55.62310 0.000000 20.39841 24.34430 1.619301
285 76.44980 56.33940 0.000000 31.36965 30.93031 1.692630
286 86.51330 61.26870 28.01810 42.21235 39.84455 8.534376
287 41.94640 0.000000 38.63560 8.679526 4.682199 12.95241
288 62.63640 0.000000 58.30680 20.83092 11.18036 31.16575
289 76.52120 35.01570 70.78360 35.74835 24.12648 48.55686
290 81.77730 49.40630 90.30320 50.09100 36.74678 83.26423
291 0.000000 31.92100 37.87920 4.999087 6.377466 12.59035
292 17.46660 35.07190 41.13720 7.242634 8.600911 15.09162
293 31.19770 41.95440 42.34800 11.12255 12.97715 16.25844
294 50.18410 51.07080 41.67900 18.93689 21.08018 16.13655
295 62.43260 60.59140 51.82930 29.85566 32.24157 25.52185
296 76.99240 75.34700 58.20340 46.17378 50.94709 33.93232
297 34.39710 76.72100 21.69480 22.37439 39.04692 6.926606
298 49.24240 86.82370 51.95420 36.47901 54.75243 27.57449
299 86.41050 87.44530 100.0000 75.13453 76.02133 109.0222
300 31.89230 10.65470 53.33990 8.986779 5.155469 25.47467
301 46.40780 12.73120 63.69900 15.63700 8.809247 38.04173
302 51.55190 17.64830 78.44940 22.30059 12.68647 59.84591
303 70.44630 27.67280 88.03240 36.69209 22.21862 77.36527
304 60.41780 18.78520 10.03440 14.39645 9.532568 1.488199
305 66.03550 37.59260 0.000000 19.63721 16.65870 0.890131
306 100.0000 63.03000 0.000000 53.30511 47.33095 2.176366
307 100.0000 78.02750 60.88620 67.32338 65.23663 37.93304
308 100.0000 79.83980 76.44320 72.83749 69.37743 60.29193
309 32.04270 11.85770 0.000000 3.897609 2.815904 0.349549
310 35.69980 25.48710 18.91720 6.658410 6.132968 3.641070
311 48.91530 35.91650 21.66780 12.77080 12.27731 4.750061
312 66.80750 55.69420 43.34770 28.54503 28.77624 18.02578
313 85.50600 59.48490 60.51680 46.42022 40.78289 35.79980
314 100.0000 26.54910 0.000000 43.49274 27.29522 0.695419
315 100.0000 25.89660 18.42130 44.22110 27.52539 3.711159
316 82.98130 46.35210 0.000000 33.13446 27.34948 1.239864
317 100.0000 46.15940 0.000000 47.43736 35.43341 1.299847
318 100.0000 53.08640 59.37900 56.32186 43.05989 33.91094
319 47.97100 13.39830 8.980800 8.724565 5.700108 1.217266
320 57.10290 15.02940 39.10810 15.30880 9.376153 13.56806
321 70.12120 90.41880 38.17310 46.80096 64.62134 16.75884
322 84.29260 100.0000 43.61630 63.90180 84.30850 22.23587
323 0.000000 79.75580 22.56570 19.72094 39.59014 7.409197
324 12.41630 90.56060 56.22210 31.81611 55.82723 32.81335
325 17.50820 91.19660 76.94330 38.70144 60.01237 61.63327
326 74.87880 18.17070 9.642700 22.75975 14.14331 1.497683
327 88.56260 20.21330 7.302300 32.84504 20.20467 1.171922
328 100.0000 0.000000 25.59700 42.98466 24.18152 5.714722
329 100.0000 0.000000 36.74800 44.37584 24.82836 12.06347
330 100.0000 0.000000 83.37200 56.03239 30.24005 69.92395
331 100.0000 61.83850 82.68720 66.84765 53.23526 70.23372
332 0.000000 0.000000 0.000000 0.126978 0.111810 0.280887
333 6.097600 0.000000 0.000000 0.339273 0.231966 0.281838
334 8.333300 0.000000 0.000000 0.440444 0.290067 0.282238
335 11.02480 0.000000 9.862900 0.817159 0.481241 1.274597
336 21.28880 0.000000 11.95670 1.861229 1.062548 1.593063
337 15.54430 0.000000 19.15460 1.595574 0.876663 3.383975
338 15.26170 29.70400 46.69340 7.004499 7.024946 19.32150
339 23.16250 40.91570 66.91190 14.74808 14.11270 43.02758
340 44.32380 46.71620 73.04790 23.28085 21.07404 52.15883
341 0.000000 54.19470 39.99470 10.68702 17.81632 14.82519
342 0.000000 53.81670 67.85130 16.66467 20.40647 44.70214
343 26.13190 89.06830 89.32550 43.21151 60.00244 84.20413
344 51.12280 88.65170 100.0000 55.16694 65.89419 109.1575
345 47.87750 56.56090 74.49750 28.03463 28.23932 55.40276
346 85.47630 62.03050 85.94430 55.29343 46.51544 75.35822
347 89.24530 73.35280 95.40510 67.49177 60.57964 95.73958
348 10.68380 0.000000 0.000000 0.571129 0.362929 0.282565
349 13.15790 0.000000 0.000000 0.764227 0.471832 0.282378
350 15.76580 0.000000 0.000000 0.952143 0.577104 0.282972
351 55.97730 0.000000 68.50290 20.37681 10.66913 44.65932
352 68.35670 14.38410 72.73410 28.51148 16.03115 50.75112
353 69.06760 34.87070 78.05820 33.36297 22.56218 59.93145
354 70.58940 79.92470 80.35810 51.22946 56.81697 66.71504
355 75.25670 95.14160 79.27330 63.46503 78.09861 66.53036
356 26.97610 65.48530 45.30550 18.45264 28.64696 20.04243
357 41.07050 73.37320 56.32860 27.79018 39.21104 31.79666
358 1.938000 0.000000 0.000000 0.175999 0.140573 0.280662
359 3.968300 0.000000 0.000000 0.233501 0.173371 0.281086
360 86.32300 18.24850 40.77620 33.61248 20.05858 14.68996
361 86.23310 59.41920 68.05090 49.10757 42.16935 46.34733
362 100.0000 77.98780 87.37520 75.96378 69.23985 79.86314
363 100.0000 100.0000 100.0000 95.27008 100.2131 110.3638
364 47.96440 84.60330 15.41110 30.26604 49.92421 5.777099
365 61.38160 85.00750 23.51180 37.00765 54.04689 8.381650
366 45.35740 39.61870 12.59880 11.50424 12.56316 2.315734
367 75.79300 40.85650 22.19400 27.38743 22.00829 5.170469
368 76.01140 45.56020 35.10470 30.11245 25.17567 11.63953
369 75.74300 64.61250 62.83040 41.90750 41.23131 39.16137
370 87.92740 81.44320 92.31470 69.16494 67.95062 89.88930
371 100.0000 88.92930 100.0000 88.02035 84.94510 109.5078
372 100.0000 37.30470 73.13090 56.23326 36.43519 52.53447
373 98.44790 54.58730 72.96680 59.46617 45.24697 53.07701
374 52.99720 51.53310 26.85440 18.45748 21.16714 7.299465
375 56.98050 74.41470 38.44220 30.82984 42.03183 15.48299
376 66.81770 76.29040 48.67190 38.37895 47.60586 24.05154
377 88.57030 86.83650 71.49990 64.73668 70.49023 52.88786
378 21.92410 24.23000 38.52370 5.746201 5.303030 12.99250
379 50.12260 40.36990 39.07730 15.89769 15.20763 14.11940
380 57.12990 46.58490 91.48220 35.36494 27.19583 85.81492
381 59.02790 66.47860 100.0000 47.27416 44.15161 106.8708
382 83.65820 75.07750 100.0000 66.35411 60.68668 108.3662
383 91.24980 68.57340 3.977700 47.73927 47.72930 2.787795
384 100.0000 87.56020 16.65000 65.93147 72.88955 6.476777
385 100.0000 100.0000 25.86550 75.07576 90.82149 11.18423
386 83.72990 84.53430 0.000000 49.80988 61.00031 3.718012
387 100.0000 85.06230 38.48090 66.70127 70.98096 16.84957
388 91.28990 89.27820 31.22380 60.49600 71.48893 12.67652
389 31.09730 69.71360 28.75640 18.86518 31.97079 9.280756
390 28.41290 100.0000 26.43970 35.99981 68.77605 11.11908
391 26.51160 100.0000 92.58420 52.16443 76.32615 92.24329
392 67.32290 44.89570 87.55190 38.22731 28.22458 77.79785
393 90.93880 54.73310 87.74920 58.11973 44.12726 78.91502
394 26.61320 17.13180 26.59210 4.449689 3.625631 6.264406
395 47.80100 32.83940 28.99440 12.28537 11.05129 7.751513
396 57.70810 39.07470 42.76930 19.45876 16.77482 16.73919
397 69.54980 45.47150 50.84930 28.58962 24.08847 24.16124
398 0.000000 6.097600 0.000000 0.287031 0.445808 0.306028
399 0.000000 8.333300 0.000000 0.357584 0.592437 0.317073
400 32.06540 8.108400 22.60020 4.704747 2.973517 4.583457
401 34.64350 23.04040 58.87060 11.83459 8.128662 31.60720
402 0.000000 38.23720 51.59540 8.601495 10.16439 23.96661
403 7.507300 49.44600 70.35450 16.51582 18.34098 48.48743
404 40.40430 50.02990 88.70270 28.66695 25.04838 80.11030
405 49.52150 51.72080 100.0000 37.56996 30.23075 106.1638
406 10.50500 8.221700 32.32070 2.538003 1.668455 8.763716
407 21.45000 17.48840 45.88970 6.127518 4.368950 18.49123
408 22.70180 27.04060 55.85290 9.314336 7.553425 28.43984
409 62.01350 48.60970 63.95230 28.42843 24.97918 39.53835
410 0.636100 0.636100 0.636100 0.160080 0.154243 0.312947
411 1.282100 1.282100 1.282100 0.182343 0.174693 0.342239
412 1.938000 1.938000 1.938000 0.237051 0.234118 0.401202
413 38.76570 15.62120 46.73520 9.755533 6.213391 19.26579
414 40.18980 27.81010 47.82920 11.64274 9.216108 20.61915
415 41.77260 37.96070 56.36410 16.00571 14.25959 29.95952
416 0.000000 19.56700 15.55050 1.534325 2.355023 2.544898
417 11.12950 21.19530 19.70390 2.384541 3.026734 3.667609
418 54.02570 62.63480 41.70730 24.92174 30.76423 17.00128
419 71.74380 68.39550 45.09400 36.92477 41.05814 20.23482
420 0.000000 1.938000 0.000000 0.167976 0.197509 0.287147
421 0.000000 3.968300 0.000000 0.211408 0.288384 0.294660
422 38.06050 10.33290 21.03550 6.009058 3.855436 4.054511
423 63.29650 26.20590 40.29380 19.49857 13.38562 14.36710
424 71.87710 45.74420 66.49320 34.06751 26.94960 43.39173
425 85.64410 56.89430 75.69250 49.95960 40.89620 57.67729
426 90.89390 86.20530 79.46240 69.37022 72.47173 66.16793
427 100.0000 90.04070 88.62090 83.35722 83.94356 83.54850
428 57.89410 71.39740 10.38430 27.31629 37.90327 3.662234
429 85.51420 81.63330 15.89780 49.96351 58.67768 5.777409
430 12.56210 52.53100 33.34350 10.06718 16.88604 10.72009
431 15.62070 65.82100 82.85690 27.20734 32.99206 69.87833
432 40.54390 65.84790 92.05270 35.86812 37.64724 88.29124
433 0.000000 40.20270 62.88620 11.59689 12.20455 37.18395
434 12.89950 40.61180 88.33370 20.86701 16.79513 78.75915
435 11.14940 51.42460 90.73390 24.55176 23.11823 83.95853
436 36.09990 62.23310 100.0000 37.02974 35.58899 106.7060
437 0.000000 19.86310 26.25230 2.274494 2.752009 6.064447
438 13.05640 36.51250 28.08210 5.446183 8.144078 7.262543
439 25.30820 37.98340 28.82750 7.418465 9.787533 7.840038
440 24.08950 33.86470 19.86610 5.621786 7.521326 4.076504
441 43.30130 36.88110 27.76130 11.41432 11.72522 7.263123
442 69.47110 47.46360 28.57570 25.81898 23.62867 8.163206
443 77.36050 56.07340 41.95260 35.22665 32.85664 16.90771
444 38.00080 53.83330 0.000000 12.70204 18.97340 1.495684
445 65.70170 69.13590 0.000000 29.86682 37.72652 2.452707
446 81.57010 70.09470 0.000000 40.56405 44.55766 2.567717
447 84.44500 100.0000 0.000000 60.45354 82.69040 5.334207
448 100.0000 100.0000 0.000000 73.94148 90.26083 5.386128
449 100.0000 100.0000 45.20260 77.61688 92.19268 23.57914
450 66.85450 10.46770 15.37470 17.35626 10.32084 2.499769
451 71.89310 16.59190 25.42870 21.55631 13.22914 5.859454
452 100.0000 21.18810 61.98720 50.44903 29.53470 36.79216
453 99.45340 19.68780 89.37120 59.15657 33.33193 81.47008
454 100.0000 0.000000 100.0000 63.23812 33.42285 105.6473
455 24.57200 7.676400 14.25550 2.675581 1.853379 2.076356
456 25.49880 18.69910 14.21570 3.503582 3.365824 2.178829
457 18.60450 79.83050 15.17660 20.80069 40.73360 5.401015
458 18.42450 88.92100 32.87730 27.54191 52.47665 13.27650
459 2.064800 19.18310 31.68160 2.778815 2.878387 8.633040
460 10.44410 28.08960 38.40700 5.142062 5.769251 13.05425
461 10.92370 31.04970 65.62810 11.11464 9.202021 40.42589
462 0.000000 22.97980 100.0000 22.66029 12.61875 105.2968
463 0.000000 37.61400 100.0000 25.01725 17.51403 105.5206
464 0.000000 49.39760 100.0000 27.81818 23.45674 105.7552
465 0.000000 74.19180 100.0000 37.54155 43.58938 107.4541
466 0.000000 85.92380 100.0000 43.80883 56.56383 108.9080
467 31.52680 57.61530 60.29380 19.54292 24.43954 35.40353
468 59.55020 57.28240 77.61490 34.22625 32.10557 60.25617
469 66.63810 68.21230 84.80150 45.04772 44.70395 74.33028
470 13.64720 50.13000 50.02080 12.00013 16.63355 23.31306
471 15.77770 60.80260 60.28190 18.17529 25.42772 35.26349
472 21.40650 72.14000 73.59800 27.58697 37.72473 54.94750
473 27.89800 75.70620 88.54710 35.76087 44.43050 81.65925
474 57.96450 87.78450 91.96680 53.81414 64.74834 90.24784
475 61.81520 49.26920 16.98000 21.29886 21.91663 3.768927
476 64.19690 60.68990 16.13450 26.28808 30.55383 4.166263
477 100.0000 74.44610 19.77100 59.35317 58.49316 6.401589
478 100.0000 87.27360 57.43080 71.91549 75.82778 34.84454
479 52.90530 36.03600 54.36060 18.99153 15.38004 27.71307
480 62.56750 36.13780 66.23340 26.49895 19.36361 42.13703
481 88.38710 45.86420 71.88950 47.33951 34.44349 50.95012
482 65.18460 21.31510 0.000000 16.70268 11.14812 0.499065
483 75.13490 31.93860 10.50990 24.81666 17.87269 1.891897
484 82.76790 41.26980 9.755900 31.94898 24.73042 2.026710
485 100.0000 57.53410 16.21310 51.78520 43.41246 4.151066
486 100.0000 68.15960 30.89960 57.39226 53.01825 10.91424
487 100.0000 73.41270 46.26680 62.05984 59.07416 22.01760
488 20.63590 11.20670 0.000000 1.919528 1.673709 0.341415
489 47.91610 17.75970 0.000000 8.731370 6.160238 0.425658
490 50.19070 21.93410 33.27940 12.06531 8.518655 9.968337
491 55.08490 31.38830 43.94570 16.87662 13.02553 17.32301
492 35.40200 43.77600 30.43120 10.96665 13.77073 9.052370
493 37.68460 55.92490 36.75060 15.86126 21.90323 13.03262
494 43.17430 69.01450 36.00240 22.69979 33.53234 13.38631
495 40.73580 87.88780 40.63880 32.48989 54.05184 18.14585
496 61.33460 88.04930 49.42430 42.40940 60.04713 25.61950
497 71.75700 88.91870 58.57940 50.68064 65.21637 35.43492
498 0.000000 0.000000 0.000000 0.127350 0.112041 0.281830
499 26.62080 0.000000 38.80020 4.998714 2.609002 12.89074
500 27.38040 0.000000 81.14920 15.75604 7.633571 64.92180
501 48.60430 0.000000 81.67010 21.67325 10.96323 65.68631
502 71.31840 0.000000 82.80470 33.25185 17.41468 67.92603
503 80.68540 0.000000 100.0000 47.20767 24.38310 105.2967
504 6.956600 15.57740 18.38280 1.650566 1.939603 3.310741
505 15.76270 15.33830 21.38670 2.400762 2.295159 4.223049
506 35.63660 19.35040 27.48250 6.671060 5.148453 6.688868
507 64.53800 24.05450 31.77320 18.89254 12.75474 9.054087
508 36.58160 29.88070 12.34170 7.091563 7.381475 1.994252
509 40.18450 46.09050 18.57780 11.80015 15.21419 4.089701
510 46.22580 69.08890 21.11880 22.15985 33.38374 6.243689
511 73.48160 83.05730 44.92810 45.40646 57.03785 21.35024
512 34.43090 0.000000 100.0000 25.33831 12.05636 104.8025
513 49.29500 24.61970 100.0000 31.79989 18.06988 105.7814
514 67.87620 25.53490 100.0000 40.44340 23.10819 105.7338
515 13.08270 50.22830 42.33380 10.62743 15.94739 16.79648
516 29.13230 58.40810 46.43200 16.26746 23.27316 20.42948
517 39.06710 59.14410 52.51580 20.25527 25.87317 26.36073
518 49.80580 64.64260 63.23100 28.48484 33.66300 39.41705
519 54.54400 73.24790 76.55620 38.30383 44.73108 59.16297
520 53.63280 80.41110 77.57730 41.87687 51.96586 62.15978
521 50.54860 87.53800 63.17810 40.31757 57.77661 41.32817
522 64.76880 88.39180 66.10990 48.36033 62.97050 45.64286
523 80.48690 89.46880 67.56510 59.36212 70.21221 47.72711
524 30.83100 19.45500 36.15690 6.565867 5.073330 11.34300
525 42.58380 27.48820 38.75820 10.96340 8.860446 13.55119
526 62.26060 44.94000 55.05630 25.50589 22.14935 28.25989
527 78.29120 69.60910 86.13910 53.94548 50.72060 77.04761
528 8.609700 64.60680 45.48490 16.04892 26.85575 20.04910
529 15.35520 67.02160 55.16870 19.55195 30.18603 29.90654
530 11.80730 72.13950 66.47290 24.42203 36.11468 44.58109
531 0.000000 81.30990 71.13790 29.65585 45.84460 51.32336
532 0.000000 82.57710 83.55760 34.74420 49.59285 72.43919
533 0.000000 100.0000 86.51590 47.13229 73.75380 79.75844
534 76.81000 33.05990 45.40140 29.52803 20.58775 18.76100
535 92.81050 34.87850 52.65490 43.60477 29.04796 25.70183
536 100.0000 45.22770 65.27890 55.45406 38.91441 41.13486
537 47.28130 0.000000 17.70010 8.382361 4.711644 2.909516
538 57.52040 15.30120 19.98280 13.49957 8.575698 3.776171
539 75.82190 28.96270 21.46290 25.19893 17.49177 4.653055
540 88.76390 55.55660 36.37800 42.69392 36.97606 12.92465
541 88.69520 76.38190 67.07640 58.18583 58.56119 46.12878
542 60.37270 58.36710 40.26850 25.93170 28.89614 15.69627
543 93.23510 77.41250 44.14640 57.10718 58.99490 20.31633
544 24.99920 21.61430 8.334300 3.475047 3.753128 1.199598
545 32.41390 34.77280 7.446800 6.891946 8.653227 1.405872
546 38.50800 39.55540 22.36870 9.937459 11.65091 5.052783
547 49.61570 45.92140 31.27170 16.17109 17.46732 9.531784
548 56.34990 48.53210 42.08810 21.15585 21.30286 16.56272
549 76.68030 49.01770 61.90060 36.94802 30.07491 37.27407
550 23.07650 6.168700 18.70410 2.668439 1.732555 3.390753
551 23.75780 6.411800 27.06900 3.404248 2.093588 6.263784
552 26.55510 11.65280 38.12550 5.320820 3.395534 12.39636
553 10.51680 37.34750 34.91190 6.228732 8.811154 10.99838
554 16.79570 41.21640 42.71890 8.676925 11.28438 16.70500
555 37.80720 43.36910 48.34300 14.01560 15.11997 21.56990
556 40.06870 52.43720 52.59010 18.12843 21.19546 25.95952
557 49.66430 55.80560 60.35330 24.35553 26.09679 35.26899
558 0.000000 79.80290 38.98750 21.56713 40.53814 15.99554
559 5.621000 84.88860 66.63730 30.51881 49.44443 45.51088
560 23.78670 91.30110 68.49130 37.18516 59.45144 49.48359
561 18.91400 87.24360 44.41920 27.88225 50.59213 20.71088
562 57.52540 100.0000 51.43430 49.13481 75.91343 28.80191
563 73.93580 100.0000 54.68650 58.95460 81.35212 32.56084
564 87.17730 100.0000 63.51130 70.68577 87.82777 44.03219
565 44.65150 53.03130 12.94140 14.93687 19.94365 3.006840
566 68.01880 55.65680 29.48110 27.47478 28.40936 9.124936
567 87.51260 64.00430 40.81640 45.56002 43.27663 16.60620
568 89.19060 84.37780 42.50180 57.02763 64.64857 19.61348
569 20.46550 46.07760 0.000000 6.944088 12.24260 1.131127
570 26.34690 65.08760 0.000000 14.36057 26.33029 2.143280
571 35.78150 82.00600 0.000000 24.44575 44.37318 3.408725
572 44.17630 90.10030 30.59020 33.81982 57.07545 12.20373
573 62.36160 100.0000 38.58810 49.28923 76.25953 18.11094
574 0.000000 60.53970 19.42100 10.83683 21.38213 5.003850
575 17.40160 66.67620 32.77450 15.78704 28.09358 11.44177
576 86.58830 68.07080 77.57970 55.99395 51.23305 61.48764
577 94.38690 70.24270 87.67060 67.19290 58.44335 80.17101
578 100.0000 77.97490 100.0000 81.75805 72.00173 108.8534
579 88.34300 55.83260 49.90840 44.66962 37.93570 23.61528
580 100.0000 64.50930 49.65440 58.41261 50.77537 24.33111
581 27.23750 90.10750 11.52610 27.94592 53.90973 5.444670
582 55.63500 92.97580 11.13420 38.52704 62.56462 5.690618
583 69.23410 100.0000 24.52680 51.42870 77.45396 10.49872
584 18.72340 60.86090 12.48110 11.90741 22.44194 3.288031
585 50.70060 69.78930 60.68170 30.26364 37.98115 36.53252
586 71.21550 73.31300 81.56660 49.15898 50.71824 68.77505
587 72.62180 82.93930 89.64820 57.95237 62.68337 85.00036
588 73.72410 90.60030 92.44450 64.54466 73.38459 91.91574
589 86.12750 90.36430 96.01360 74.67991 78.63979 99.39570
590 13.64560 15.93050 0.000000 1.493812 1.943894 0.391834
591 39.58510 16.98460 10.97070 6.401906 4.764470 1.602440
592 29.63530 0.000000 24.41490 3.967013 2.179152 5.084502
593 48.15020 9.121900 25.91240 9.594456 5.767200 5.854290
594 59.34450 13.21290 30.02760 14.86512 9.029039 8.195014
595 84.57360 14.41080 46.75890 33.25844 19.33734 19.48200
596 100.0000 39.24860 48.23250 50.41296 34.27235 22.04534
597 100.0000 67.67830 63.59750 63.34345 55.68190 40.85203
598 100.0000 88.40400 73.82820 76.78255 79.01986 57.19738
599 12.10200 16.63860 27.40060 2.698527 2.548599 6.613232
600 13.49360 21.56660 27.08950 3.156050 3.445288 6.552292
601 19.14200 28.70660 29.78200 4.967285 5.858865 8.034562
602 54.38600 62.44170 31.15210 23.50496 29.81016 10.31084
603 60.64980 73.62170 27.42880 31.05695 41.78981 9.174630
604 73.18350 77.84020 28.06240 40.12101 49.84553 9.752327
605 79.94460 90.22460 30.08090 52.28812 67.56117 12.23252
606 100.0000 100.0000 77.93720 86.41709 96.39321 66.04282
607 100.0000 100.0000 90.06480 90.94106 98.40689 88.29233
608 6.799700 20.94430 9.244800 1.649919 2.621599 1.355065
609 11.01130 34.00050 56.98710 9.553059 9.388650 30.24271
610 15.57310 56.91770 64.87930 17.73655 22.80933 40.28690
611 13.17390 69.06180 77.39770 26.32226 34.72123 60.15465
612 40.48280 73.71300 90.91920 39.03194 44.82494 86.76534
613 17.35300 9.498000 19.22910 2.079819 1.592665 3.506288
614 26.39100 16.33650 19.05520 3.761966 3.207897 3.560901
615 35.12490 44.83190 38.94790 12.28144 14.71954 14.09247
616 42.59010 73.86400 67.32440 31.45484 41.39765 46.07163
617 51.03640 83.48170 69.70600 40.02453 53.86532 50.32293
618 63.09540 91.52110 84.85460 55.74536 69.44149 76.26924
619 14.84750 14.78920 89.79640 17.93131 9.427188 81.25499
620 43.62750 32.51640 89.47970 25.95769 17.17079 81.52870
621 58.86890 40.61510 100.0000 38.66144 26.31866 106.3477
622 45.01040 0.000000 27.42660 8.259896 4.575113 6.403889
623 59.57010 0.000000 43.99430 16.25856 8.883047 16.72302
624 70.29230 20.71090 46.64270 23.72604 14.76576 19.37340
625 88.36880 41.84850 47.96260 40.24602 29.41770 21.32020
626 26.66780 9.224100 3.483700 2.755112 2.031579 0.568934
627 40.43540 8.536000 12.29940 6.144900 3.869492 1.716850
628 54.83140 62.49090 14.39110 22.18868 29.14030 3.863304
629 82.42190 68.36660 49.93590 45.16521 45.68903 24.44825
630 90.50800 68.76260 57.72370 53.61307 50.63895 33.36944
631 92.40210 70.77920 72.83900 60.36145 55.42418 54.12217
632 11.57850 7.767500 0.000000 0.880939 0.870537 0.317346
633 19.13160 9.606700 5.832600 1.743856 1.457699 0.810904
634 31.23790 19.62080 7.894700 4.529930 4.100868 1.113244
635 45.00460 26.97280 18.59110 9.572746 8.176880 3.498672
636 46.75070 30.46530 36.04340 12.33001 10.38243 11.49199
637 0.000000 100.0000 23.43720 32.97819 67.16994 9.813246
638 26.59150 100.0000 66.87990 43.22264 72.29674 47.92019
639 50.94390 100.0000 74.21700 52.38772 77.31679 58.78484
640 0.000000 65.51140 38.43270 14.83331 26.67871 14.59874
641 37.95190 71.24560 44.65020 23.44755 35.56562 19.90473
642 64.95780 71.76090 54.22010 36.44828 43.03120 29.24248
643 80.24700 72.77000 81.09970 54.83283 53.67901 68.11653
644 14.00720 9.175200 61.17220 8.048742 4.318459 34.53096
645 58.42760 23.29540 67.03100 22.54883 13.97746 43.17236
646 89.44780 26.70960 67.86560 43.26916 26.33678 44.48368
647 90.99150 37.10470 82.89300 51.32042 33.26319 69.15897
648 100.0000 49.40420 86.21380 63.83209 44.80467 75.99794
649 100.0000 0.000000 51.43340 46.63154 25.88039 23.73784
650 100.0000 0.000000 66.87110 50.51545 27.66128 43.06335
651 0.000000 48.50470 53.58120 11.45350 15.41652 26.67478
652 0.000000 62.11940 56.60830 16.70217 25.17194 30.75372
653 0.000000 66.62200 69.71070 22.27250 30.96553 48.87787
654 74.24610 89.61410 85.39890 61.30110 71.08439 77.36607
655 89.10130 100.0000 89.50920 80.86737 92.72836 86.48651
656 81.80220 28.01170 0.000000 28.44555 19.01547 0.660307
657 89.57980 34.55010 20.41410 36.20626 25.08505 4.378700
658 92.61660 48.20970 21.25400 42.09258 33.20687 5.237099
659 100.0000 55.48830 32.93570 52.46160 42.39422 11.11033
660 44.13930 25.16260 8.151100 8.632211 7.225390 1.284823
661 48.03300 26.12360 28.43380 11.19070 8.810883 7.315567
662 49.94470 26.57430 56.61890 16.60406 11.55369 29.54976
663 16.43110 25.54410 70.02790 12.21903 8.471137 47.67703
664 16.66350 33.23010 90.80500 20.88393 14.45051 84.40169
665 61.02640 77.03550 90.53460 48.65519 52.64081 86.30557
666 100.0000 100.0000 100.0000 95.40839 100.3209 110.8074
667 19.35750 12.29390 75.00270 12.70770 6.790482 54.30014
668 27.01530 25.11980 81.91830 17.64300 11.03508 67.08092
669 41.43160 55.17800 82.87860 28.48031 27.69701 69.85868
670 33.40730 26.76450 35.55230 7.700806 6.849006 11.17471
671 40.29540 41.25850 34.51420 12.21346 13.44433 11.13867
672 59.00940 42.08270 34.47730 19.40232 17.77121 11.27643
673 69.26010 50.26520 46.58320 28.98324 26.35753 20.46440
674 74.49910 66.01370 55.88100 39.95370 41.07032 30.48768
675 23.23550 23.88470 15.40020 3.769924 4.307766 2.610753
676 23.01860 35.60280 32.57960 6.966938 8.752787 9.612067
677 27.63210 39.58470 49.66060 11.10414 11.98030 22.53830
678 30.01590 34.60760 51.75610 10.95914 10.39507 24.20078
679 39.21820 52.48790 62.48690 20.34031 22.25157 37.75175
680 57.59580 60.29240 70.42950 32.29906 32.96404 49.82352
681 75.63840 65.29860 69.96650 44.38266 42.95724 49.18514
682 14.99760 23.65550 6.793400 2.391017 3.449346 1.019258
683 14.27890 34.84920 8.983200 4.072735 7.005352 1.613152
684 15.21290 43.97380 10.55510 6.181189 11.08548 2.165273
685 59.03710 46.73900 29.18930 20.09846 20.07352 8.287027
686 63.75240 54.84670 52.72490 28.68326 28.33937 26.27327
687 80.62060 62.37830 56.46850 42.99289 40.58300 31.23207
688 100.0000 0.000000 13.55210 42.21593 23.80134 2.137680
689 100.0000 23.94610 33.78720 45.35068 27.69262 10.44709
690 100.0000 23.22830 49.23470 47.68715 28.61852 22.25838
691 100.0000 26.78800 80.84740 56.88252 33.64929 65.44023
692 27.35970 55.49790 21.89820 11.97538 19.59451 5.660103
693 28.73970 64.06950 57.03790 20.49919 28.70609 31.37652
694 33.69720 67.09550 66.45240 25.38513 33.29337 43.63111
695 39.67780 77.87550 79.56510 36.40741 47.07386 65.00232
696 82.00100 88.74890 83.23770 65.27244 72.39355 73.24325
697 89.49720 11.02950 14.68450 33.13673 19.23148 2.346088
698 88.81450 19.24260 23.56180 33.76841 20.46110 5.234009
699 88.61950 31.76580 33.16030 36.19379 24.15178 10.22348
700 100.0000 39.66500 32.21350 47.95339 33.20473 9.931490
701 100.0000 51.37190 46.30990 53.08440 40.61863 20.51300
702 100.0000 64.86730 73.46150 64.77110 54.08651 54.74252
703 8.420000 6.134700 15.64000 1.042300 0.828283 2.444868
704 8.434800 6.031900 23.14840 1.482957 1.015516 4.620515
705 12.87300 8.140200 44.75040 4.425046 2.567207 17.34187
706 29.56640 25.91560 46.93150 8.554111 7.013446 19.83031
707 43.01730 32.50760 60.87230 16.28277 12.63557 34.72235
708 62.72410 29.46160 10.67030 17.12123 13.00038 1.774404
709 63.14210 39.07450 13.09750 19.20891 16.84838 2.486270
710 75.61310 49.75780 19.87800 29.70190 26.87675 4.742292
711 33.14490 21.33400 0.000000 4.812147 4.428919 0.461751
712 34.36490 25.27670 27.05890 6.868576 6.136591 6.636192
713 36.07810 31.01010 27.17730 8.162070 8.185217 6.743079
714 40.99840 34.01150 38.87310 11.56815 10.81181 13.69469
715 44.94010 45.79050 55.21610 18.34322 18.32734 28.57157
716 72.43160 80.31790 70.12240 49.45408 56.44134 51.10984
717 76.78070 100.0000 90.24540 72.40185 87.97874 88.31186
718 88.13220 100.0000 100.0000 85.20461 94.57324 110.8669
719 86.55140 92.16700 50.03440 61.24834 74.24132 26.99043
720 100.0000 100.0000 61.19030 81.18845 93.82924 40.86496
721 0.000000 0.000000 0.000000 0.127238 0.112103 0.281315
722 16.63100 0.000000 29.68950 2.491168 1.300688 7.507991
723 16.24450 17.35370 56.94640 7.733145 5.003033 29.66415
724 63.75930 19.22380 60.14580 23.05018 13.85970 33.39643
725 0.000000 37.43140 15.17860 4.034022 7.638248 2.877038
726 0.000000 50.61080 22.76100 7.723665 14.55942 5.553535
727 42.66480 51.04410 30.35800 15.04830 19.00891 9.111121
728 69.28300 54.30590 58.64540 32.93136 30.28607 33.25497
729 68.05890 53.93760 76.65410 37.33689 32.31630 58.25888
730 73.27060 58.64660 89.54280 47.06968 39.79631 82.47383
731 63.32040 11.20750 88.54440 31.31714 16.66597 79.30743
732 84.33690 26.45630 100.0000 51.89508 29.71676 106.3800
733 0.000000 39.77850 27.71360 5.309942 8.895724 7.109627
734 56.85440 43.41540 70.81480 26.73759 21.79058 49.45448
735 57.17650 54.26680 86.33230 35.50629 30.89012 76.19735
736 69.33620 66.56910 93.04730 49.28974 45.73249 90.17508
737 74.35300 79.47040 94.09300 59.13505 60.48129 93.91248
738 65.52570 0.000000 24.25180 16.86797 9.450873 5.158544
739 82.77810 8.097000 26.82680 28.70125 16.46451 6.350099
740 87.06950 32.08700 57.35350 39.27215 25.61906 30.85997
741 0.000000 17.54710 52.97600 5.836604 4.058387 24.70536
742 0.000000 18.21760 66.81330 9.398828 5.765042 42.17007
743 0.000000 32.46670 76.09490 13.98222 10.82876 56.21297
744 0.000000 44.16390 78.64710 17.36842 16.41356 61.13816
745 0.000000 57.59310 83.43950 23.30395 25.64766 71.05761
746 33.03680 0.000000 13.85720 3.984635 2.251794 1.986626
747 48.72570 16.66460 22.35240 9.980036 6.694325 4.544313
748 53.44820 26.28760 23.22620 12.82296 9.801467 5.084526
749 66.39330 28.45860 25.74020 19.66299 14.22006 6.261404
750 70.55840 39.49630 37.24050 25.51027 20.37622 12.90530
751 84.50140 42.66360 39.18880 36.01222 27.43704 14.47528
752 24.37300 36.26630 0.000000 5.339033 8.021976 0.792595
753 39.86130 43.21810 0.000000 10.22729 13.08270 1.037749
754 40.97410 73.86520 8.228500 21.91512 36.57178 3.514826
755 100.0000 78.62980 0.000000 60.51317 62.44541 3.310299
756 74.01220 61.19420 12.33200 32.05291 34.14835 3.336376
757 72.55150 69.87950 12.01960 34.60364 41.08753 3.889535
758 89.20100 74.06610 23.78230 49.39771 52.50699 7.792480
759 23.94590 22.91810 0.000000 3.253653 3.808298 0.482742
760 24.95580 30.08030 11.03570 4.693545 6.103262 1.831257
761 31.51830 32.40940 22.50150 6.865758 7.843132 4.793181
762 33.53240 36.94700 66.40370 15.81373 13.47556 42.02395
763 0.000000 43.53120 40.45830 7.722789 11.48953 14.58429
764 21.16250 51.03570 65.28630 16.67728 19.34399 40.86637
765 23.68080 50.37320 73.93540 19.48016 20.30844 54.15735
766 35.99180 59.39300 75.22300 25.60751 28.29131 56.95009
767 50.74450 65.51210 77.69390 33.39389 36.39584 61.05126
768 10.31040 27.53720 21.40960 3.204678 4.618773 4.402783
769 24.35110 30.40010 24.78200 5.488019 6.612421 5.769465
770 26.07460 32.23390 38.94140 7.554407 8.008704 13.58206
771 32.93630 32.40090 73.64280 17.08301 12.74495 52.91273
772 58.83900 32.48260 86.95150 30.84562 20.00635 76.52967
773 71.82640 8.354300 50.79300 24.59553 13.82572 23.07325
774 80.50130 47.74940 51.96460 36.84103 29.68743 25.63845
775 87.26410 48.42970 60.93110 44.29955 33.95896 35.89514
776 10.82480 53.53630 19.28610 9.013955 16.90441 4.645733
777 13.51980 71.55510 23.86060 16.51463 31.69297 7.331000
778 29.90450 76.96230 63.12690 28.18291 41.84609 40.26944
779 48.13030 90.45590 88.74200 50.00742 65.24134 83.47795
780 54.18940 100.0000 90.29630 59.54602 80.70382 87.49839
781 20.24840 0.000000 48.79610 5.662140 2.826969 20.78083
782 31.87510 0.000000 64.72670 11.30409 5.646009 38.85391
783 36.15950 18.48570 70.59810 15.11317 8.967233 48.26259
784 0.000000 25.77450 14.47330 2.104824 3.648275 2.340874
785 12.02550 30.68630 16.71400 3.528338 5.523152 3.080306
786 28.23120 41.10820 16.69180 7.645366 10.96527 3.365481
787 27.96910 49.52770 46.76180 13.09396 16.99049 20.10610
788 33.49360 65.15710 73.59910 26.73367 32.57980 54.69653
789 36.99270 84.16470 91.40750 43.67820 55.82996 88.29974
790 43.24820 100.0000 100.0000 60.11780 80.35155 110.3901
791 26.22330 47.43720 37.40120 10.79969 15.00238 12.98371
792 43.38370 54.12010 43.26680 18.07288 22.10811 17.65150
793 48.69420 56.34230 51.03800 21.91721 25.26388 24.46060
794 50.13360 30.13550 0.000000 10.95220 9.611678 0.651245
795 51.10800 35.57050 12.07230 12.64273 12.09705 2.153913
796 69.19390 50.79950 9.581500 25.11089 24.75664 2.340579
797 87.15440 58.21020 13.09250 40.28051 36.99980 3.359981
798 40.17800 14.36330 31.29820 7.781771 5.161240 8.571634
799 44.65990 20.82350 41.27820 11.02942 7.664059 14.88686
800 34.25250 9.772800 33.84860 6.198494 3.823939 9.781851
801 40.86290 14.78490 86.62480 21.62272 11.65905 75.10992
802 80.08840 45.61240 100.0000 52.61272 35.98864 106.5632
803 100.0000 47.02500 100.0000 69.60900 46.35525 107.0102
804 32.06310 39.68760 87.67380 23.46728 17.90903 78.20539
805 30.95800 39.19350 100.0000 28.79124 20.12469 106.2170
806 69.32810 59.44810 100.0000 49.98894 41.29177 107.4915
807 0.000000 12.65270 27.50570 1.804321 1.587071 6.514821
808 17.56360 14.72270 31.86530 3.486809 2.784502 8.652642
809 26.50000 81.00380 100.0000 43.64728 52.57020 108.1331
810 100.0000 100.0000 100.0000 95.37068 100.2708 110.8959
811 46.44430 65.30590 49.12060 24.20241 31.92250 23.47213
812 60.67750 77.06680 59.84110 38.27589 47.93960 36.13339
813 14.01590 38.14360 54.18500 9.884510 10.75839 26.88685
814 23.86850 41.45490 78.32060 18.72294 16.27335 60.84874
815 75.17750 47.70340 77.74620 40.31745 31.03505 60.32259
816 78.95800 18.65600 70.20810 35.10379 20.30432 48.14736
817 92.94320 11.41020 71.26420 45.55705 25.32944 49.22612
818 83.08030 0.000000 78.25960 39.70406 21.20233 60.43311
819 82.96340 34.28700 88.71850 46.73328 29.40820 79.99604
820 42.38780 0.000000 52.03400 11.13340 5.834374 24.21027
821 51.09020 11.05550 51.71600 14.26691 8.187325 23.84675
822 61.96980 69.50160 63.88260 36.22275 41.06584 40.84365
823 74.22700 72.50660 65.44790 44.99710 48.20436 43.22658
824 87.20060 76.56350 74.68260 59.20490 58.88144 57.39418
825 92.85320 81.95280 86.63760 71.29315 69.84043 79.14561
END_DATA
CAL    

DESCRIPTOR "Argyll Device Calibration State"
ORIGINATOR "Argyll dispread"
CREATED "Tue May 26 14:52:48 2020"
DEVICE_CLASS "DISPLAY"
COLOR_REP "RGB"

BEGIN_ARGYLL_DISPCAL_ARGS
-v2 -qm -m -w0.3127,0.329 -gs -f1.0 -k0 -A4.0 -d1 -c1 -yn -P0.460483870968,0.465,1.86301369863 -F
END_ARGYLL_DISPCAL_ARGS


NUMBER_OF_FIELDS 4
BEGIN_DATA_FORMAT
RGB_I RGB_R RGB_G RGB_B
END_DATA_FORMAT

NUMBER_OF_SETS 256
BEGIN_DATA
0.00000000 0.00000000 0.00000000 0.00000000
0.00392157 0.00748776 0.00634185 0.00650800
0.00784314 0.01451510 0.01239530 0.01266570
0.01176470 0.02112330 0.01817960 0.01850070
0.01568630 0.02734860 0.02371230 0.02403770
0.01960780 0.03322330 0.02900950 0.02929900
0.02352940 0.03876480 0.03408590 0.03430390
0.02745100 0.04398370 0.03895260 0.03905950
0.03137250 0.04890580 0.04362270 0.04357540
0.03529410 0.05356360 0.04811900 0.04788040
0.03921570 0.05798400 0.05246340 0.05200260
0.04313730 0.06219690 0.05667800 0.05597370
0.04705880 0.06623660 0.06078360 0.05982290
0.05098040 0.07013830 0.06479580 0.06357470
0.05490200 0.07393320 0.06873270 0.06725370
0.05882350 0.07764380 0.07260970 0.07088090
0.06274510 0.08128280 0.07644170 0.07447660
0.06666670 0.08486440 0.08024160 0.07805840
0.07058820 0.08839570 0.08401670 0.08163990
0.07450980 0.09189710 0.08777290 0.08522560
0.07843140 0.09537020 0.09151150 0.08882450
0.08235290 0.09882760 0.09524410 0.09243770
0.08627450 0.10227200 0.09896940 0.09606990
0.09019610 0.10570100 0.10269300 0.09972170
0.09411760 0.10913000 0.10641400 0.10338400
0.09803920 0.11255600 0.11012500 0.10705500
0.10196100 0.11597600 0.11382600 0.11072200
0.10588200 0.11938800 0.11751500 0.11438000
0.10980400 0.12280700 0.12118900 0.11802200
0.11372500 0.12622400 0.12484900 0.12165300
0.11764700 0.12963700 0.12850400 0.12526800
0.12156900 0.13304100 0.13215200 0.12886600
0.12549000 0.13643700 0.13579200 0.13243800
0.12941200 0.13984100 0.13941900 0.13599400
0.13333300 0.14324500 0.14304100 0.13953800
0.13725500 0.14664900 0.14666400 0.14306900
0.14117600 0.15005500 0.15028500 0.14659400
0.14509800 0.15345800 0.15390400 0.15010500
0.14902000 0.15685300 0.15751900 0.15360000
0.15294100 0.16024900 0.16112300 0.15708400
0.15686300 0.16365600 0.16472100 0.16056800
0.16078400 0.16706600 0.16832100 0.16404700
0.16470600 0.17047400 0.17192100 0.16751600
0.16862700 0.17388200 0.17551600 0.17097900
0.17254900 0.17729300 0.17910600 0.17443600
0.17647100 0.18069500 0.18269500 0.17786900
0.18039200 0.18407900 0.18627000 0.18128200
0.18431400 0.18745100 0.18982500 0.18467600
0.18823500 0.19081300 0.19336900 0.18805200
0.19215700 0.19417800 0.19689900 0.19142200
0.19607800 0.19755300 0.20042000 0.19478700
0.20000000 0.20092600 0.20394000 0.19814500
0.20392200 0.20430000 0.20745500 0.20149500
0.20784300 0.20767400 0.21096700 0.20483600
0.21176500 0.21106300 0.21447300 0.20817800
0.21568600 0.21447000 0.21797700 0.21152700
0.21960800 0.21789600 0.22148600 0.21487000
0.22352900 0.22132600 0.22499800 0.21820600
0.22745100 0.22475800 0.22850300 0.22154800
0.23137300 0.22820200 0.23200400 0.22489900
0.23529400 0.23165300 0.23551300 0.22825100
0.23921600 0.23511200 0.23902900 0.23160500
0.24313700 0.23858100 0.24255000 0.23496400
0.24705900 0.24207500 0.24607600 0.23834200
0.25098000 0.24559300 0.24961300 0.24173400
0.25490200 0.24912000 0.25316800 0.24513500
0.25882400 0.25265100 0.25672800 0.24854200
0.26274500 0.25618300 0.26029300 0.25195100
0.26666700 0.25971400 0.26386100 0.25536400
0.27058800 0.26323700 0.26743800 0.25877000
0.27451000 0.26675800 0.27102000 0.26217900
0.27843100 0.27029400 0.27461000 0.26560000
0.28235300 0.27385000 0.27821600 0.26904000
0.28627500 0.27742500 0.28184500 0.27249500
0.29019600 0.28100100 0.28550400 0.27594400
0.29411800 0.28455000 0.28918000 0.27938400
0.29803900 0.28807400 0.29285300 0.28282600
0.30196100 0.29158300 0.29652800 0.28627900
0.30588200 0.29508900 0.30020900 0.28974600
0.30980400 0.29859500 0.30390400 0.29323000
0.31372500 0.30209400 0.30761500 0.29671500
0.31764700 0.30558600 0.31133600 0.30021100
0.32156900 0.30907800 0.31506100 0.30371100
0.32549000 0.31257000 0.31879600 0.30721700
0.32941200 0.31606300 0.32253500 0.31072700
0.33333300 0.31956000 0.32627800 0.31424700
0.33725500 0.32306900 0.33002500 0.31778200
0.34117600 0.32660600 0.33378300 0.32132100
0.34509800 0.33015700 0.33755000 0.32486000
0.34902000 0.33372000 0.34131500 0.32839800
0.35294100 0.33729700 0.34507600 0.33193500
0.35686300 0.34088600 0.34883500 0.33547100
0.36078400 0.34448800 0.35259100 0.33899900
0.36470600 0.34810700 0.35634400 0.34252900
0.36862700 0.35175600 0.36009600 0.34606200
0.37254900 0.35542400 0.36385800 0.34958200
0.37647100 0.35909600 0.36761800 0.35309500
0.38039200 0.36277400 0.37136900 0.35660700
0.38431400 0.36646900 0.37511600 0.36011900
0.38823500 0.37017500 0.37886600 0.36362800
0.39215700 0.37388900 0.38261800 0.36714100
0.39607800 0.37762300 0.38637100 0.37067400
0.40000000 0.38138300 0.39013700 0.37423700
0.40392200 0.38517200 0.39392300 0.37783200
0.40784300 0.38898700 0.39773500 0.38144400
0.41176500 0.39278900 0.40156900 0.38504000
0.41568600 0.39655500 0.40539700 0.38861600
0.41960800 0.40028200 0.40920400 0.39217500
0.42352900 0.40397700 0.41299600 0.39573200
0.42745100 0.40765300 0.41677800 0.39929800
0.43137300 0.41131500 0.42055900 0.40286900
0.43529400 0.41496300 0.42433800 0.40644200
0.43921600 0.41860600 0.42810800 0.41002600
0.44313700 0.42224100 0.43187500 0.41361400
0.44705900 0.42586800 0.43563900 0.41721100
0.45098000 0.42949800 0.43940000 0.42082300
0.45490200 0.43312700 0.44316800 0.42444000
0.45882400 0.43673900 0.44694300 0.42805400
0.46274500 0.44033200 0.45071400 0.43167100
0.46666700 0.44392500 0.45448000 0.43530200
0.47058800 0.44752300 0.45825300 0.43894600
0.47451000 0.45111900 0.46204100 0.44258600
0.47843100 0.45471800 0.46583500 0.44623500
0.48235300 0.45832800 0.46963400 0.44988800
0.48627500 0.46194600 0.47344400 0.45355000
0.49019600 0.46556800 0.47726500 0.45722400
0.49411800 0.46919100 0.48110100 0.46090900
0.49803900 0.47281500 0.48495000 0.46460400
0.50196100 0.47644000 0.48881400 0.46831000
0.50588200 0.48006600 0.49269400 0.47202900
0.50980400 0.48369800 0.49658800 0.47577300
0.51372500 0.48736200 0.50050500 0.47952400
0.51764700 0.49103200 0.50444200 0.48327800
0.52156900 0.49470500 0.50838400 0.48703500
0.52549000 0.49838100 0.51233200 0.49079500
0.52941200 0.50206000 0.51628600 0.49456000
0.53333300 0.50574300 0.52024400 0.49832700
0.53725500 0.50943300 0.52420600 0.50209200
0.54117600 0.51313300 0.52817300 0.50585800
0.54509800 0.51684800 0.53213900 0.50961400
0.54902000 0.52057300 0.53610600 0.51336900
0.55294100 0.52431000 0.54006600 0.51712900
0.55686300 0.52806800 0.54403600 0.52087800
0.56078400 0.53183100 0.54801600 0.52461400
0.56470600 0.53558900 0.55198700 0.52833900
0.56862700 0.53935000 0.55595300 0.53204700
0.57254900 0.54312000 0.55991600 0.53574700
0.57647100 0.54690600 0.56387500 0.53945100
0.58039200 0.55071700 0.56784100 0.54315400
0.58431400 0.55454800 0.57181800 0.54683100
0.58823500 0.55836200 0.57578600 0.55048300
0.59215700 0.56214300 0.57972700 0.55412400
0.59607800 0.56589300 0.58365000 0.55776300
0.60000000 0.56962300 0.58756500 0.56139100
0.60392200 0.57333100 0.59146900 0.56501400
0.60784300 0.57701800 0.59536200 0.56863300
0.61176500 0.58068400 0.59924400 0.57226100
0.61568600 0.58434800 0.60312100 0.57589800
0.61960800 0.58800800 0.60699700 0.57953900
0.62352900 0.59166400 0.61087200 0.58319100
0.62745100 0.59531900 0.61474800 0.58684000
0.63137300 0.59896900 0.61862200 0.59048600
0.63529400 0.60261100 0.62248500 0.59413200
0.63921600 0.60624800 0.62634200 0.59777600
0.64313700 0.60988700 0.63019900 0.60140600
0.64705900 0.61352500 0.63405600 0.60502400
0.65098000 0.61715900 0.63790600 0.60863800
0.65490200 0.62080800 0.64175900 0.61226100
0.65882400 0.62448300 0.64561900 0.61590700
0.66274500 0.62820000 0.64949900 0.61958800
0.66666700 0.63196700 0.65340500 0.62331000
0.67058800 0.63578600 0.65734400 0.62707300
0.67451000 0.63965800 0.66131300 0.63087600
0.67843100 0.64358100 0.66531400 0.63467700
0.68235300 0.64754400 0.66933200 0.63843700
0.68627500 0.65147600 0.67331100 0.64215400
0.69019600 0.65536700 0.67724500 0.64582700
0.69411800 0.65921700 0.68113300 0.64946100
0.69803900 0.66302600 0.68498200 0.65307100
0.70196100 0.66679600 0.68880300 0.65667200
0.70588200 0.67054100 0.69261300 0.66028100
0.70980400 0.67427700 0.69642700 0.66389500
0.71372500 0.67800900 0.70024800 0.66751800
0.71764700 0.68175100 0.70408200 0.67113900
0.72156900 0.68550100 0.70793100 0.67475100
0.72549000 0.68925100 0.71179300 0.67835900
0.72941200 0.69300600 0.71567100 0.68196500
0.73333300 0.69677200 0.71957200 0.68557200
0.73725500 0.70054600 0.72349300 0.68918700
0.74117600 0.70433200 0.72743800 0.69279300
0.74509800 0.70811300 0.73139100 0.69639200
0.74902000 0.71188400 0.73534500 0.69999300
0.75294100 0.71565900 0.73930600 0.70359700
0.75686300 0.71944200 0.74327000 0.70720900
0.76078400 0.72323800 0.74723500 0.71083500
0.76470600 0.72705300 0.75120600 0.71448100
0.76862700 0.73088600 0.75518200 0.71814400
0.77254900 0.73473100 0.75916100 0.72182600
0.77647100 0.73858900 0.76314500 0.72552700
0.78039200 0.74245900 0.76713400 0.72925400
0.78431400 0.74634000 0.77113000 0.73299000
0.78823500 0.75022000 0.77512100 0.73673800
0.79215700 0.75409600 0.77910600 0.74048900
0.79607800 0.75797900 0.78308600 0.74424000
0.80000000 0.76187200 0.78706100 0.74800300
0.80392200 0.76579200 0.79104300 0.75178900
0.80784300 0.76974400 0.79504400 0.75560100
0.81176500 0.77372400 0.79906900 0.75942400
0.81568600 0.77771000 0.80310400 0.76321900
0.81960800 0.78165400 0.80711400 0.76698400
0.82352900 0.78555600 0.81109800 0.77072500
0.82745100 0.78942500 0.81506400 0.77445800
0.83137300 0.79328200 0.81902400 0.77819800
0.83529400 0.79715000 0.82299100 0.78194300
0.83921600 0.80103100 0.82696600 0.78568900
0.84313700 0.80492300 0.83094900 0.78944100
0.84705900 0.80883300 0.83494300 0.79320400
0.85098000 0.81276700 0.83895100 0.79697800
0.85490200 0.81672500 0.84297500 0.80075400
0.85882400 0.82071100 0.84700900 0.80454500
0.86274500 0.82473900 0.85106500 0.80836100
0.86666700 0.82881100 0.85515000 0.81219700
0.87058800 0.83290100 0.85926100 0.81602600
0.87451000 0.83697000 0.86336600 0.81984200
0.87843100 0.84101900 0.86746300 0.82365900
0.88235300 0.84506900 0.87156400 0.82748200
0.88627500 0.84912000 0.87566800 0.83131200
0.89019600 0.85318000 0.87978400 0.83514700
0.89411800 0.85725000 0.88391200 0.83899800
0.89803900 0.86133300 0.88805400 0.84286700
0.90196100 0.86540800 0.89220700 0.84673600
0.90588200 0.86946900 0.89635800 0.85061000
0.90980400 0.87352100 0.90052000 0.85450000
0.91372500 0.87758100 0.90470200 0.85840900
0.91764700 0.88165300 0.90891200 0.86233400
0.92156900 0.88571300 0.91313700 0.86625900
0.92549000 0.88976300 0.91736600 0.87019600
0.92941200 0.89381600 0.92160700 0.87415500
0.93333300 0.89786400 0.92586100 0.87811900
0.93725500 0.90190500 0.93011700 0.88208600
0.94117600 0.90595100 0.93438400 0.88605700
0.94509800 0.90999500 0.93865700 0.89002500
0.94902000 0.91404800 0.94294500 0.89399500
0.95294100 0.91811100 0.94724700 0.89796600
0.95686300 0.92218700 0.95156300 0.90193700
0.96078400 0.92627400 0.95588800 0.90591000
0.96470600 0.93037000 0.96022300 0.90988000
0.96862700 0.93447200 0.96456900 0.91385000
0.97254900 0.93858300 0.96892400 0.91782100
0.97647100 0.94270100 0.97329000 0.92179400
0.98039200 0.94682700 0.97766600 0.92576900
0.98431400 0.95095900 0.98205200 0.92974600
0.98823500 0.95509800 0.98645000 0.93372500
0.99215700 0.95924400 0.99085700 0.93770500
0.99607800 0.96339700 0.99527500 0.94168700
1.00000000 0.96755700 0.99970400 0.94567100
END_DATA
