CTI3   

DESCRIPTOR "Argyll Calibration Target chart information 3"
ORIGINATOR "Argyll dispread"
CREATED "Tue May 26 14:52:48 2020"
DEVICE_CLASS "DISPLAY"
SINGLE_DIM_STEPS "25"
COMP_GREY_STEPS "73"
DARK_REGION_EMPHASIS "1.6"
COLOR_REP "RGB_XYZ"
TARGET_INSTRUMENT "X-Rite i1 DisplayPro, ColorMunki Display"
DISPLAY_TYPE_REFRESH "NO"
DISPLAY_TYPE_BASE_ID "1"
INSTRUMENT_TYPE_SPECTRAL "NO"
LUMINANCE_XYZ_CDM2 "203.497609 214.053489 235.096144"
NORMALIZED_TO_Y_100 "YES"
VIDEO_LUT_CALIBRATION_POSSIBLE "YES"

BEGIN_ARGYLL_COLPROF_ARGS
-v -qh -aX -bn -C "No copyright. Created with DisplayCAL 3.8.9.3 and ArgyllCMS 2.1.2" -M "DELL P2417H" -A "Dell, Inc."
END_ARGYLL_COLPROF_ARGS

OBSERVER "1931_2"
USE_BLACK_POINT_COMPENSATION "NO"
BLACK_POINT_CORRECTION "0.0"
HIRES_B2A "YES"
HIRES_B2A_SIZE "-1"
SMOOTH_B2A "YES"
PATCH_SEQUENCE "OPTIMIZE_DISPLAY_RESPONSE_DELAY"

NUMBER_OF_FIELDS 7
BEGIN_DATA_FORMAT
SAMPLE_ID RGB_R RGB_G RGB_B XYZ_X XYZ_Y XYZ_Z
END_DATA_FORMAT

NUMBER_OF_SETS 825
BEGIN_DATA
1 100.0000 100.0000 100.0000 95.06858 100.0000 109.8306
2 1.960800 1.960800 1.960800 0.224953 0.235199 0.300632
3 3.921600 3.921600 3.921600 0.376198 0.390673 0.515187
4 5.882400 5.882400 5.882400 0.558927 0.578303 0.750033
5 9.803900 9.803900 9.803900 1.030848 1.074758 1.289589
6 13.72600 13.72600 13.72600 1.687494 1.759940 2.049687
7 17.64700 17.64700 17.64700 2.577694 2.676874 3.087698
8 21.56900 21.56900 21.56900 3.646114 3.793812 4.348139
9 25.49000 25.49000 25.49000 4.957133 5.176817 5.873575
10 29.41200 29.41200 29.41200 6.651287 7.025706 7.838731
11 33.33300 33.33300 33.33300 8.579820 9.008455 10.08996
12 37.25500 37.25500 37.25500 10.86221 11.41881 12.61477
13 41.17600 41.17600 41.17600 13.37645 14.03787 15.49126
14 45.09800 45.09800 45.09800 16.05689 16.91792 18.46814
15 49.02000 49.02000 49.02000 19.46870 20.43971 22.47184
16 52.94100 52.94100 52.94100 22.86443 24.04985 26.38846
17 56.86300 56.86300 56.86300 26.98089 28.30139 31.28181
18 60.78400 60.78400 60.78400 31.05037 32.69468 36.00062
19 64.70600 64.70600 64.70600 35.78168 37.68753 41.16347
20 68.62700 68.62700 68.62700 40.86373 43.07065 47.21566
21 72.54900 72.54900 72.54900 46.17341 48.63140 52.82328
22 76.47100 76.47100 76.47100 51.92397 54.66872 59.40914
23 80.39200 80.39200 80.39200 58.04294 60.98256 66.52691
24 84.31400 84.31400 84.31400 64.54640 67.77115 74.35730
25 88.23500 88.23500 88.23500 71.46312 75.37440 82.01743
26 92.15700 92.15700 92.15700 78.70626 82.85393 90.64745
27 96.07800 96.07800 96.07800 86.97194 91.37605 99.54581
28 0.000000 100.0000 56.65490 37.84154 69.30891 34.10205
29 46.02260 100.0000 60.25940 46.18529 73.79991 38.75547
30 64.92250 100.0000 82.23970 61.58498 81.88321 72.39375
31 6.720100 25.86900 28.23190 3.351293 4.310343 7.117191
32 26.17130 57.25610 33.11030 13.28927 21.06193 10.82468
33 50.41020 80.93360 33.92200 30.60283 46.68723 13.23614
34 79.71010 0.000000 60.59150 31.68914 17.25560 34.12055
35 86.00330 17.15870 88.44720 46.42281 25.85951 78.78701
36 100.0000 27.14850 100.0000 65.06278 37.49451 105.1551
37 0.000000 9.193300 16.86960 0.880621 0.902921 2.693867
38 0.000000 24.57100 41.57920 4.520623 4.557889 14.92516
39 0.000000 28.22860 56.04490 7.769261 6.915051 28.36409
40 0.000000 61.03800 100.0000 31.78155 31.76782 106.1006
41 50.83730 77.30890 100.0000 48.35928 52.11580 107.0768
42 18.51850 0.000000 0.000000 1.216345 0.728950 0.268626
43 21.42860 0.000000 0.000000 1.627398 0.958494 0.278748
44 24.50980 0.000000 0.000000 2.030777 1.185158 0.283547
45 27.77780 0.000000 0.000000 2.640439 1.529316 0.287341
46 31.25000 0.000000 0.000000 3.265013 1.880754 0.288926
47 34.94620 0.000000 0.000000 4.057507 2.328063 0.291577
48 38.88890 0.000000 0.000000 5.073702 2.900867 0.294477
49 43.10350 0.000000 0.000000 6.411057 3.654141 0.298426
50 47.61910 0.000000 0.000000 7.693487 4.381922 0.302318
51 52.46910 0.000000 0.000000 9.588860 5.446584 0.308443
52 57.69230 0.000000 0.000000 11.91256 6.752708 0.314918
53 63.33330 0.000000 0.000000 14.58623 8.265235 0.323325
54 69.44440 0.000000 0.000000 18.01326 10.19785 0.333643
55 76.08700 0.000000 0.000000 22.22977 12.57032 0.345351
56 83.33330 0.000000 0.000000 27.29583 15.43135 0.361784
57 82.83610 0.000000 33.43940 29.06430 16.23730 9.715769
58 81.58400 0.000000 48.19400 30.39289 16.80115 20.45998
59 87.08190 13.43140 57.77760 37.06997 21.12767 30.72952
60 55.78250 0.000000 12.57400 11.46247 6.476931 1.733195
61 77.89700 0.000000 16.99150 24.13957 13.59732 2.779687
62 94.00920 17.83960 37.32890 39.59829 23.40441 12.39848
63 0.000000 10.68380 0.000000 0.466184 0.822629 0.322224
64 0.000000 13.15790 0.000000 0.610572 1.120862 0.351442
65 0.000000 15.76580 0.000000 0.781475 1.477202 0.381157
66 0.000000 18.51850 0.000000 0.967696 1.865045 0.410541
67 0.000000 21.42860 0.000000 1.252908 2.460737 0.455109
68 0.000000 24.50980 0.000000 1.539244 3.056299 0.498308
69 0.000000 27.77780 0.000000 2.017343 4.051945 0.572776
70 0.000000 31.25000 0.000000 2.492324 5.040307 0.646338
71 0.000000 34.94620 0.000000 3.135326 6.383236 0.744991
72 0.000000 38.88890 0.000000 3.845713 7.862393 0.854995
73 0.000000 43.10350 0.000000 4.827079 9.865965 1.003702
74 0.000000 47.61910 0.000000 5.904177 12.16808 1.175973
75 0.000000 52.46910 0.000000 7.385342 15.23537 1.401665
76 0.000000 57.69230 0.000000 9.050384 18.72183 1.661295
77 0.000000 63.33330 0.000000 11.15083 23.04335 1.983241
78 0.000000 69.44440 0.000000 13.81618 28.65728 2.400209
79 0.000000 76.08700 0.000000 16.93217 35.14118 2.881839
80 0.000000 83.33330 0.000000 20.66674 42.87930 3.456507
81 0.000000 91.26980 0.000000 25.72337 53.47843 4.247717
82 0.000000 100.0000 40.94180 34.73131 67.65831 19.38372
83 36.18930 100.0000 41.13270 39.43344 70.39990 19.89057
84 68.66040 100.0000 68.70510 59.26409 81.17763 50.48771
85 0.000000 0.000000 6.097600 0.211416 0.159345 0.647102
86 0.000000 0.000000 8.333300 0.255673 0.179969 0.870042
87 0.000000 0.000000 10.68380 0.325547 0.211817 1.201465
88 0.000000 0.000000 13.15790 0.423350 0.254527 1.671272
89 0.000000 0.000000 15.76580 0.544399 0.310773 2.258192
90 0.000000 0.000000 18.51850 0.689774 0.376963 2.970163
91 0.000000 0.000000 21.42860 0.888266 0.469631 3.956407
92 0.000000 0.000000 24.50980 1.082154 0.559258 4.938236
93 0.000000 0.000000 27.77780 1.352962 0.684718 6.286184
94 0.000000 0.000000 31.25000 1.736187 0.862964 8.212517
95 0.000000 0.000000 34.94620 2.115471 1.039196 10.09825
96 0.000000 0.000000 38.88890 2.620543 1.276045 12.59695
97 0.000000 0.000000 43.10350 3.279242 1.583933 15.84239
98 0.000000 0.000000 47.61910 3.938407 1.892477 19.10200
99 0.000000 0.000000 52.46910 4.940313 2.361151 24.06817
100 0.000000 0.000000 57.69230 6.071212 2.889734 29.65381
101 0.000000 0.000000 63.33330 7.494100 3.550020 36.65735
102 0.000000 0.000000 69.44440 9.230048 4.357827 45.25652
103 0.000000 0.000000 76.08700 11.19007 5.262067 54.91924
104 0.000000 0.000000 83.33330 13.75395 6.443793 67.59603
105 0.000000 0.000000 91.26980 17.06140 7.934658 83.90678
106 0.000000 0.000000 100.0000 21.19068 9.753190 104.3833
107 59.48400 0.000000 100.0000 34.14759 17.04379 104.3077
108 85.61510 61.71560 100.0000 61.70235 49.16853 107.0008
109 100.0000 64.33550 100.0000 75.41411 58.76386 107.3962
110 2.604200 2.604200 2.604200 0.281561 0.283870 0.372979
111 3.280800 3.280800 3.280800 0.314295 0.329085 0.426296
112 3.968300 3.968300 3.968300 0.374835 0.389506 0.513546
113 4.666700 4.666700 4.666700 0.425603 0.444375 0.575728
114 5.376300 5.376300 5.376300 0.504340 0.525796 0.677305
115 6.097600 6.097600 6.097600 0.599559 0.620111 0.795708
116 6.830600 6.830600 6.830600 0.641490 0.654529 0.822942
117 7.575800 7.575800 7.575800 0.718792 0.745095 0.924128
118 8.333300 8.333300 8.333300 0.837315 0.860886 1.045257
119 9.103600 9.103600 9.103600 0.938998 0.975823 1.178197
120 9.887000 9.887000 9.887000 1.027029 1.070938 1.286834
121 10.68380 10.68380 10.68380 1.158171 1.202773 1.424811
122 11.49420 11.49420 11.49420 1.250913 1.278445 1.584527
123 12.31880 12.31880 12.31880 1.392859 1.440468 1.722442
124 13.15790 13.15790 13.15790 1.583840 1.650936 1.935300
125 14.01180 14.01180 14.01180 1.768508 1.846341 2.133268
126 14.88100 14.88100 14.88100 1.942648 2.034753 2.328199
127 15.76580 15.76580 15.76580 2.103530 2.202401 2.551083
128 16.66670 16.66670 16.66670 2.344682 2.443534 2.816901
129 17.58410 17.58410 17.58410 2.567881 2.667572 3.083940
130 18.51850 18.51850 18.51850 2.708186 2.838367 3.320088
131 19.47040 19.47040 19.47040 3.071497 3.250767 3.656655
132 20.44020 20.44020 20.44020 3.322853 3.498487 3.949862
133 21.42860 21.42860 21.42860 3.634571 3.781183 4.342130
134 22.43590 22.43590 22.43590 3.845660 4.025434 4.562553
135 23.46280 23.46280 23.46280 4.302704 4.492882 5.104851
136 24.50980 24.50980 24.50980 4.552315 4.760372 5.381969
137 25.57760 25.57760 25.57760 4.944818 5.161682 5.870440
138 26.66670 26.66670 26.66670 5.421499 5.665832 6.420751
139 27.77780 27.77780 27.77780 5.999165 6.304831 6.974424
140 28.91160 28.91160 28.91160 6.488824 6.827270 7.599045
141 30.06870 30.06870 30.06870 6.998819 7.309154 8.345566
142 31.25000 31.25000 31.25000 7.600485 7.931202 8.953784
143 32.45610 32.45610 32.45610 8.164088 8.535251 9.564854
144 33.68790 33.68790 33.68790 8.853500 9.264248 10.38354
145 34.94620 34.94620 34.94620 9.467577 9.941897 11.11347
146 36.23190 36.23190 36.23190 10.14079 10.65041 11.72833
147 37.54580 37.54580 37.54580 11.05018 11.64205 12.90108
148 38.88890 38.88890 38.88890 11.73051 12.30188 13.81576
149 40.26220 40.26220 40.26220 12.75930 13.35529 14.76374
150 41.66670 41.66670 41.66670 13.70325 14.36252 15.90247
151 43.10350 43.10350 43.10350 14.79524 15.47237 17.20633
152 44.57360 44.57360 44.57360 15.88313 16.68538 18.28277
153 46.07840 46.07840 46.07840 16.74079 17.60647 19.35055
154 47.61910 47.61910 47.61910 18.06364 18.99379 20.86295
155 49.19680 49.19680 49.19680 19.43887 20.41724 22.55274
156 50.81300 50.81300 50.81300 21.01987 22.11734 24.33281
157 52.46910 52.46910 52.46910 22.39111 23.57508 25.93445
158 54.16670 54.16670 54.16670 24.08096 25.36205 27.89188
159 55.90720 55.90720 55.90720 26.07194 27.35441 30.20330
160 57.69230 57.69230 57.69230 27.58833 29.02346 32.07262
161 59.52380 59.52380 59.52380 29.63324 31.31301 34.21063
162 61.40350 61.40350 61.40350 32.07716 33.77668 37.23332
163 63.33330 63.33330 63.33330 33.95117 35.70186 39.45660
164 65.31530 65.31530 65.31530 36.57013 38.54450 42.21663
165 67.35160 67.35160 67.35160 39.17272 41.37760 45.42066
166 69.44440 69.44440 69.44440 41.87081 44.18836 48.62285
167 71.59620 71.59620 71.59620 45.03167 47.47425 51.73717
168 73.80950 73.80950 73.80950 47.86153 50.38710 55.02785
169 76.08700 76.08700 76.08700 51.26828 53.99086 58.67645
170 78.43140 78.43140 78.43140 54.95581 57.82480 63.03490
171 80.84580 80.84580 80.84580 58.63251 61.58951 67.48114
172 83.33330 83.33330 83.33330 62.70183 65.85803 72.28497
173 85.89740 85.89740 85.89740 67.30510 70.63840 77.26680
174 88.54170 88.54170 88.54170 72.19450 76.11324 83.05499
175 91.26980 91.26980 91.26980 77.22765 81.30079 89.10250
176 94.08600 94.08600 94.08600 82.64573 87.15858 94.80026
177 96.99450 96.99450 96.99450 88.72624 93.34574 101.8252
178 15.34040 27.34700 0.000000 2.803017 4.451237 0.570827
179 37.50020 31.71630 0.000000 7.228966 7.893899 0.677118
180 55.91360 43.67310 0.000000 16.22951 16.64511 1.071064
181 56.39720 64.43050 53.73510 28.93736 33.84272 28.13767
182 60.59960 68.11150 72.79140 37.71992 40.90661 53.51432
183 28.11410 81.90620 75.73200 34.25510 48.90116 58.58477
184 42.64530 89.87530 79.84860 44.24710 61.56308 66.72407
185 59.69790 52.90370 59.67690 27.32211 26.44818 33.80910
186 75.42050 58.31710 72.05620 41.78485 37.21178 51.70318
187 46.43330 38.25010 48.26780 15.65516 14.36532 21.53229
188 52.94830 43.20340 48.13450 19.10424 17.88471 21.36110
189 53.33110 74.26650 48.97820 30.79934 41.57160 23.97743
190 62.02620 77.91460 72.10710 42.74108 50.75205 52.80390
191 63.70500 85.05060 72.19180 47.33904 59.10855 53.40670
192 44.37280 61.73020 67.24130 26.39457 30.37232 44.27697
193 42.71350 90.78660 72.51250 42.53171 61.92592 54.94811
194 0.000000 100.0000 72.87890 42.21908 71.23451 55.99715
195 32.83440 100.0000 80.99240 48.99487 74.98274 70.25076
196 0.000000 72.17780 55.50170 20.73741 34.05080 30.13105
197 27.62310 80.68280 57.44450 28.27056 45.01516 33.12994
198 0.000000 85.00970 58.26020 28.20840 48.46154 34.60935
199 7.526300 89.28380 83.58890 39.00597 58.02036 73.13716
200 0.000000 100.0000 100.0000 53.13994 76.29056 109.7183
201 14.50940 75.59090 46.88610 21.75879 37.62636 22.27371
202 25.64360 100.0000 51.76730 39.07897 70.17959 29.03706
203 0.000000 100.0000 0.000000 31.81417 66.27497 5.217029
204 29.04400 100.0000 0.000000 34.64434 67.90384 5.227107
205 50.62500 100.0000 0.000000 40.85128 71.45630 5.252559
206 68.56330 100.0000 0.000000 49.59278 76.43789 5.284391
207 10.32050 42.04780 48.57940 9.379061 11.85314 21.76363
208 26.28470 48.92160 56.20150 14.60771 17.45321 29.59077
209 55.03130 67.60650 90.95410 41.27422 41.76324 85.70301
210 69.92780 77.61540 100.0000 58.03564 57.93018 107.3816
211 14.74750 4.231900 9.578400 1.206778 0.856908 1.193030
212 16.87480 10.07110 11.56660 1.682388 1.464549 1.566780
213 50.93440 47.20210 10.30810 15.21625 17.49603 2.229599
214 62.78170 60.36630 26.93800 26.20222 30.21271 7.964382
215 78.99190 64.75520 32.76740 38.17906 39.60297 11.38424
216 46.63910 7.553200 35.74750 9.956765 5.763665 10.93423
217 64.45390 0.000000 34.73170 17.41326 9.661863 10.40795
218 73.25770 11.94380 36.57790 23.43922 13.64008 11.46933
219 78.79380 29.34340 36.47970 28.98513 19.59078 11.97179
220 90.11200 46.61320 34.22420 40.86121 31.80000 11.24352
221 55.29280 26.85210 15.64690 13.22860 10.15374 2.796027
222 63.03840 37.38870 25.90250 19.57915 16.48914 6.487607
223 70.97790 37.07820 51.68040 27.71616 20.73608 24.56233
224 49.15180 28.66070 69.63180 20.16905 13.70868 46.93328
225 50.00260 39.50560 76.88700 24.74772 19.09098 57.96292
226 46.40510 68.12330 0.000000 20.73129 31.92578 2.356365
227 60.81900 83.05330 0.000000 34.27841 50.81803 3.525252
228 74.00170 86.27340 12.23820 44.00768 58.98562 5.210942
229 85.21890 100.0000 23.23570 61.94456 83.44535 9.929937
230 0.000000 23.08560 83.81590 15.49624 9.403002 69.83872
231 10.87060 66.17980 93.30700 31.22381 35.12915 90.62838
232 26.88930 69.89960 100.0000 38.09033 40.93637 106.8684
233 28.21790 23.89120 100.0000 25.46516 14.41912 104.8403
234 28.66500 51.96790 100.0000 31.67195 27.09067 106.1125
235 0.000000 13.19210 38.53290 3.090329 2.282679 12.58171
236 11.96850 20.95190 41.91950 4.823453 4.134598 15.38738
237 55.78380 21.41240 49.53240 16.80185 10.91365 21.72310
238 68.67680 22.18400 54.84420 24.63653 15.32523 27.62595
239 78.33150 33.48350 60.68020 34.02714 22.96070 34.80215
240 31.95360 47.09450 10.87460 9.596398 14.32843 2.388967
241 32.32560 58.68870 11.07180 13.39325 22.06308 2.932779
242 49.30990 100.0000 24.68140 41.83524 72.03206 10.46985
243 83.85860 100.0000 78.23760 72.51605 88.29839 65.40920
244 0.000000 0.000000 0.000000 0.106372 0.111827 0.122415
245 0.000000 0.000000 1.938000 0.131408 0.123264 0.243238
246 0.000000 0.000000 3.968300 0.162199 0.137382 0.395565
247 0.000000 11.16480 11.27600 0.730215 0.973299 1.550122
248 23.50200 23.85630 30.88050 5.052666 4.921889 8.566310
249 52.66450 49.21040 64.26160 24.25064 22.79468 39.74322
250 68.08440 61.95060 71.88720 38.68633 37.51053 51.22288
251 0.000000 29.64560 27.69570 3.560585 5.243097 6.814777
252 40.37800 57.88350 27.03390 16.31455 23.30753 7.841473
253 78.69740 71.28620 28.46970 40.73531 45.48688 9.562342
254 85.51650 77.52850 50.40470 52.05892 56.33933 26.03125
255 85.14070 87.78180 58.77730 59.27672 68.76850 35.80718
256 84.56200 90.79960 78.13440 66.67928 75.35389 63.77164
257 72.23000 72.46870 37.14520 37.83082 44.57062 14.63643
258 92.52590 85.70300 63.57080 65.12967 70.14595 42.04449
259 13.97410 20.94360 12.94630 2.243342 2.944280 1.933748
260 12.68060 41.47350 23.20970 6.053452 10.09579 5.393085
261 24.82680 46.31140 24.80870 8.888244 13.57227 6.230440
262 31.90070 78.84820 41.38200 25.10245 41.95587 18.12247
263 34.07360 88.34100 55.87380 33.78283 54.95589 32.05849
264 28.52910 5.476200 10.13490 3.153296 2.002605 1.311185
265 30.87670 13.76600 12.57150 4.104393 3.125164 1.772383
266 38.17090 19.19930 20.96100 6.663441 5.199068 4.062508
267 61.00750 33.25530 36.05920 18.80631 14.76120 11.64240
268 63.29010 33.76480 54.11950 23.20329 17.07632 27.14459
269 71.37880 89.16880 100.0000 65.69239 72.15788 108.9242
270 0.000000 69.53030 83.38030 27.99790 35.56093 71.33002
271 8.088800 82.65170 90.54570 37.78794 51.08170 85.82412
272 24.46830 91.53670 100.0000 49.36603 65.04684 109.1432
273 68.44340 100.0000 100.0000 71.51616 86.85861 110.1475
274 7.426100 13.90900 7.490500 1.049663 1.408746 0.961260
275 16.96720 15.54510 8.253900 1.917813 2.142780 1.122555
276 91.26980 0.000000 0.000000 33.83415 19.11204 0.384893
277 100.0000 0.000000 0.000000 41.81953 23.63094 0.419632
278 100.0000 41.30100 15.57280 46.88872 33.25180 3.409305
279 34.97720 34.59490 44.16980 10.74622 10.43287 17.40625
280 35.12750 45.72870 63.71570 17.59837 17.78307 38.51778
281 23.02980 54.58550 86.00560 24.93903 25.07642 74.48565
282 25.99170 63.49880 85.61370 28.54869 32.23759 74.28442
283 51.70350 77.72790 86.89120 43.07190 50.12241 78.62446
284 57.11210 55.62310 0.000000 20.39853 24.34442 1.619477
285 76.44980 56.33940 0.000000 31.36975 30.93042 1.692805
286 86.51330 61.26870 28.01810 42.21244 39.84465 8.534540
287 41.94640 0.000000 38.63560 8.679664 4.682353 12.95256
288 62.63640 0.000000 58.30680 20.83104 11.18050 31.16588
289 76.52120 35.01570 70.78360 35.74845 24.12660 48.55696
290 81.77730 49.40630 90.30320 50.09107 36.74688 83.26427
291 0.000000 31.92100 37.87920 4.999232 6.377617 12.59051
292 17.46660 35.07190 41.13720 7.242776 8.601058 15.09177
293 31.19770 41.95440 42.34800 11.12269 12.97729 16.25859
294 50.18410 51.07080 41.67900 18.93701 21.08031 16.13670
295 62.43260 60.59140 51.82930 29.85577 32.24168 25.52199
296 76.99240 75.34700 58.20340 46.17386 50.94717 33.93244
297 34.39710 76.72100 21.69480 22.37451 39.04702 6.926773
298 49.24240 86.82370 51.95420 36.47910 54.75250 27.57462
299 86.41050 87.44530 100.0000 75.13456 76.02137 109.0222
300 31.89230 10.65470 53.33990 8.986917 5.155622 25.47480
301 46.40780 12.73120 63.69900 15.63713 8.809394 38.04185
302 51.55190 17.64830 78.44940 22.30071 12.68661 59.84599
303 70.44630 27.67280 88.03240 36.69218 22.21875 77.36532
304 60.41780 18.78520 10.03440 14.39658 9.532714 1.488375
305 66.03550 37.59260 0.000000 19.63733 16.65883 0.890308
306 100.0000 63.03000 0.000000 53.30518 47.33104 2.176541
307 100.0000 78.02750 60.88620 67.32343 65.23669 37.93316
308 100.0000 79.83980 76.44320 72.83753 69.37748 60.29201
309 32.04270 11.85770 0.000000 3.897740 2.816061 0.349681
310 35.69980 25.48710 18.91720 6.658553 6.133119 3.641242
311 48.91530 35.91650 21.66780 12.77093 12.27745 4.750232
312 66.80750 55.69420 43.34770 28.54514 28.77636 18.02593
313 85.50600 59.48490 60.51680 46.42030 40.78299 35.79992
314 100.0000 26.54910 0.000000 43.49282 27.29534 0.695596
315 100.0000 25.89660 18.42130 44.22118 27.52551 3.711331
316 82.98130 46.35210 0.000000 33.13456 27.34960 1.240040
317 100.0000 46.15940 0.000000 47.43744 35.43351 1.300023
318 100.0000 53.08640 59.37900 56.32192 43.05998 33.91106
319 47.97100 13.39830 8.980800 8.724704 5.700260 1.217442
320 57.10290 15.02940 39.10810 15.30893 9.376299 13.56822
321 70.12120 90.41880 38.17310 46.80104 64.62140 16.75899
322 84.29260 100.0000 43.61630 63.90185 84.30853 22.23601
323 0.000000 79.75580 22.56570 19.72106 39.59024 7.409363
324 12.41630 90.56060 56.22210 31.81621 55.82730 32.81348
325 17.50820 91.19660 76.94330 38.70153 60.01243 61.63335
326 74.87880 18.17070 9.642700 22.75987 14.14345 1.497859
327 88.56260 20.21330 7.302300 32.84514 20.20480 1.172098
328 100.0000 0.000000 25.59700 42.98474 24.18164 5.714891
329 100.0000 0.000000 36.74800 44.37592 24.82848 12.06363
330 100.0000 0.000000 83.37200 56.03245 30.24016 69.92402
331 100.0000 61.83850 82.68720 66.84770 53.23534 70.23379
332 0.000000 0.000000 0.000000 0.106468 0.111971 0.122872
333 6.097600 0.000000 0.000000 0.326098 0.232127 0.179981
334 8.333300 0.000000 0.000000 0.429840 0.290228 0.200062
335 11.02480 0.000000 9.862900 0.812040 0.481402 1.227336
336 21.28880 0.000000 11.95670 1.860400 1.062708 1.587130
337 15.54430 0.000000 19.15460 1.593959 0.876823 3.363984
338 15.26170 29.70400 46.69340 7.004641 7.025096 19.32165
339 23.16250 40.91570 66.91190 14.74821 14.11284 43.02769
340 44.32380 46.71620 73.04790 23.28097 21.07417 52.15892
341 0.000000 54.19470 39.99470 10.68716 17.81645 14.82534
342 0.000000 53.81670 67.85130 16.66480 20.40660 44.70225
343 26.13190 89.06830 89.32550 43.21159 60.00250 84.20417
344 51.12280 88.65170 100.0000 55.16700 65.89425 109.1575
345 47.87750 56.56090 74.49750 28.03474 28.23944 55.40285
346 85.47630 62.03050 85.94430 55.29349 46.51553 75.35828
347 89.24530 73.35280 95.40510 67.49181 60.57970 95.73960
348 10.68380 0.000000 0.000000 0.563073 0.363090 0.219899
349 13.15790 0.000000 0.000000 0.758918 0.471993 0.240747
350 15.76580 0.000000 0.000000 0.948328 0.577264 0.255067
351 55.97730 0.000000 68.50290 20.37693 10.66927 44.65943
352 68.35670 14.38410 72.73410 28.51159 16.03129 50.75122
353 69.06760 34.87070 78.05820 33.36307 22.56231 59.93153
354 70.58940 79.92470 80.35810 51.22953 56.81704 66.71511
355 75.25670 95.14160 79.27330 63.46508 78.09865 66.53043
356 26.97610 65.48530 45.30550 18.45276 28.64708 20.04258
357 41.07050 73.37320 56.32860 27.79029 39.21114 31.79679
358 1.938000 0.000000 0.000000 0.157525 0.140734 0.138233
359 3.968300 0.000000 0.000000 0.217130 0.173532 0.154760
360 86.32300 18.24850 40.77620 33.61258 20.05871 14.69011
361 86.23310 59.41920 68.05090 49.10764 42.16944 46.34743
362 100.0000 77.98780 87.37520 75.96381 69.23990 79.86319
363 100.0000 100.0000 100.0000 95.27008 100.2131 110.3638
364 47.96440 84.60330 15.41110 30.26614 49.92429 5.777268
365 61.38160 85.00750 23.51180 37.00774 54.04696 8.381815
366 45.35740 39.61870 12.59880 11.50437 12.56330 2.315908
367 75.79300 40.85650 22.19400 27.38754 22.00842 5.170639
368 76.01140 45.56020 35.10470 30.11255 25.17579 11.63969
369 75.74300 64.61250 62.83040 41.90759 41.23140 39.16149
370 87.92740 81.44320 92.31470 69.16498 67.95067 89.88933
371 100.0000 88.92930 100.0000 88.02036 84.94512 109.5078
372 100.0000 37.30470 73.13090 56.23332 36.43529 52.53456
373 98.44790 54.58730 72.96680 59.46623 45.24706 53.07710
374 52.99720 51.53310 26.85440 18.45760 21.16727 7.299631
375 56.98050 74.41470 38.44220 30.82994 42.03192 15.48314
376 66.81770 76.29040 48.67190 38.37904 47.60594 24.05168
377 88.57030 86.83650 71.49990 64.73673 70.49028 52.88795
378 21.92410 24.23000 38.52370 5.746345 5.303183 12.99265
379 50.12260 40.36990 39.07730 15.89782 15.20777 14.11956
380 57.12990 46.58490 91.48220 35.36504 27.19595 85.81496
381 59.02790 66.47860 100.0000 47.27424 44.15170 106.8708
382 83.65820 75.07750 100.0000 66.35416 60.68674 108.3662
383 91.24980 68.57340 3.977700 47.73935 47.72938 2.787969
384 100.0000 87.56020 16.65000 65.93152 72.88959 6.476945
385 100.0000 100.0000 25.86550 75.07579 90.82151 11.18439
386 83.72990 84.53430 0.000000 49.80995 61.00037 3.718184
387 100.0000 85.06230 38.48090 66.70132 70.98101 16.84972
388 91.28990 89.27820 31.22380 60.49606 71.48898 12.67668
389 31.09730 69.71360 28.75640 18.86530 31.97090 9.280919
390 28.41290 100.0000 26.43970 35.99991 68.77610 11.11924
391 26.51160 100.0000 92.58420 52.16450 76.32619 92.24332
392 67.32290 44.89570 87.55190 38.22740 28.22470 77.79790
393 90.93880 54.73310 87.74920 58.11979 44.12735 78.91507
394 26.61320 17.13180 26.59210 4.449831 3.625786 6.264541
395 47.80100 32.83940 28.99440 12.28550 11.05143 7.751679
396 57.70810 39.07470 42.76930 19.45888 16.77495 16.73934
397 69.54980 45.47150 50.84930 28.58973 24.08859 24.16138
398 0.000000 6.097600 0.000000 0.281162 0.445969 0.260103
399 0.000000 8.333300 0.000000 0.354276 0.592597 0.290758
400 32.06540 8.108400 22.60020 4.704879 2.973674 4.583535
401 34.64350 23.04040 58.87060 11.83472 8.128810 31.60733
402 0.000000 38.23720 51.59540 8.601635 10.16453 23.96675
403 7.507300 49.44600 70.35450 16.51595 18.34111 48.48753
404 40.40430 50.02990 88.70270 28.66706 25.04850 80.11035
405 49.52150 51.72080 100.0000 37.57005 30.23086 106.1638
406 10.50500 8.221700 32.32070 2.537967 1.668614 8.760943
407 21.45000 17.48840 45.88970 6.127660 4.369104 18.49136
408 22.70180 27.04060 55.85290 9.314474 7.553574 28.43997
409 62.01350 48.60970 63.95230 28.42854 24.97930 39.53846
410 0.636100 0.636100 0.636100 0.142512 0.154404 0.177459
411 1.282100 1.282100 1.282100 0.166052 0.174854 0.216523
412 1.938000 1.938000 1.938000 0.223981 0.234279 0.300149
413 38.76570 15.62120 46.73520 9.755671 6.213542 19.26594
414 40.18980 27.81010 47.82920 11.64287 9.216254 20.61929
415 41.77260 37.96070 56.36410 16.00584 14.25973 29.95965
416 0.000000 19.56700 15.55050 1.534452 2.355180 2.544838
417 11.12950 21.19530 19.70390 2.384683 3.026890 3.667709
418 54.02570 62.63480 41.70730 24.92185 30.76434 17.00143
419 71.74380 68.39550 45.09400 36.92486 41.05824 20.23497
420 0.000000 1.938000 0.000000 0.153003 0.197670 0.171525
421 0.000000 3.968300 0.000000 0.200737 0.288545 0.211970
422 38.06050 10.33290 21.03550 6.009199 3.855591 4.054666
423 63.29650 26.20590 40.29380 19.49869 13.38576 14.36726
424 71.87710 45.74420 66.49320 34.06761 26.94972 43.39184
425 85.64410 56.89430 75.69250 49.95967 40.89630 57.67738
426 90.89390 86.20530 79.46240 69.37026 72.47177 66.16800
427 100.0000 90.04070 88.62090 83.35724 83.94359 83.54854
428 57.89410 71.39740 10.38430 27.31640 37.90337 3.662406
429 85.51420 81.63330 15.89780 49.96358 58.67775 5.777578
430 12.56210 52.53100 33.34350 10.06732 16.88617 10.72025
431 15.62070 65.82100 82.85690 27.20745 32.99217 69.87840
432 40.54390 65.84790 92.05270 35.86822 37.64734 88.29128
433 0.000000 40.20270 62.88620 11.59702 12.20469 37.18407
434 12.89950 40.61180 88.33370 20.86713 16.79526 78.75920
435 11.14940 51.42460 90.73390 24.55187 23.11835 83.95857
436 36.09990 62.23310 100.0000 37.02983 35.58909 106.7060
437 0.000000 19.86310 26.25230 2.274631 2.752166 6.064439
438 13.05640 36.51250 28.08210 5.446328 8.144226 7.262709
439 25.30820 37.98340 28.82750 7.418606 9.787679 7.840204
440 24.08950 33.86470 19.86610 5.621930 7.521475 4.076676
441 43.30130 36.88110 27.76130 11.41446 11.72536 7.263289
442 69.47110 47.46360 28.57570 25.81909 23.62879 8.163371
443 77.36050 56.07340 41.95260 35.22675 32.85675 16.90786
444 38.00080 53.83330 0.000000 12.70217 18.97353 1.495860
445 65.70170 69.13590 0.000000 29.86693 37.72662 2.452881
446 81.57010 70.09470 0.000000 40.56414 44.55775 2.567891
447 84.44500 100.0000 0.000000 60.45360 82.69043 5.334377
448 100.0000 100.0000 0.000000 73.94151 90.26085 5.386297
449 100.0000 100.0000 45.20260 77.61691 92.19269 23.57928
450 66.85450 10.46770 15.37470 17.35639 10.32098 2.499943
451 71.89310 16.59190 25.42870 21.55643 13.22928 5.859623
452 100.0000 21.18810 61.98720 50.44910 29.53481 36.79228
453 99.45340 19.68780 89.37120 59.15663 33.33204 81.47013
454 100.0000 0.000000 100.0000 63.23817 33.42296 105.6473
455 24.57200 7.676400 14.25550 2.675613 1.853537 2.075843
456 25.49880 18.69910 14.21570 3.503725 3.365980 2.178977
457 18.60450 79.83050 15.17660 20.80081 40.73370 5.401184
458 18.42450 88.92100 32.87730 27.54202 52.47673 13.27666
459 2.064800 19.18310 31.68160 2.778952 2.878544 8.633033
460 10.44410 28.08960 38.40700 5.142207 5.769403 13.05441
461 10.92370 31.04970 65.62810 11.11478 9.202167 40.42600
462 0.000000 22.97980 100.0000 22.66041 12.61889 105.2968
463 0.000000 37.61400 100.0000 25.01736 17.51416 105.5206
464 0.000000 49.39760 100.0000 27.81829 23.45686 105.7552
465 0.000000 74.19180 100.0000 37.54164 43.58947 107.4541
466 0.000000 85.92380 100.0000 43.80891 56.56390 108.9080
467 31.52680 57.61530 60.29380 19.54304 24.43966 35.40365
468 59.55020 57.28240 77.61490 34.22635 32.10568 60.25625
469 66.63810 68.21230 84.80150 45.04780 44.70404 74.33034
470 13.64720 50.13000 50.02080 12.00026 16.63368 23.31320
471 15.77770 60.80260 60.28190 18.17541 25.42784 35.26361
472 21.40650 72.14000 73.59800 27.58708 37.72483 54.94759
473 27.89800 75.70620 88.54710 35.76097 44.43059 81.65930
474 57.96450 87.78450 91.96680 53.81421 64.74840 90.24787
475 61.81520 49.26920 16.98000 21.29898 21.91676 3.769099
476 64.19690 60.68990 16.13450 26.28819 30.55394 4.166434
477 100.0000 74.44610 19.77100 59.35323 58.49323 6.401757
478 100.0000 87.27360 57.43080 71.91553 75.82782 34.84466
479 52.90530 36.03600 54.36060 18.99165 15.38018 27.71320
480 62.56750 36.13780 66.23340 26.49906 19.36374 42.13714
481 88.38710 45.86420 71.88950 47.33959 34.44360 50.95022
482 65.18460 21.31510 0.000000 16.70281 11.14826 0.499242
483 75.13490 31.93860 10.50990 24.81677 17.87282 1.892072
484 82.76790 41.26980 9.755900 31.94908 24.73054 2.026885
485 100.0000 57.53410 16.21310 51.78527 43.41255 4.151237
486 100.0000 68.15960 30.89960 57.39232 53.01833 10.91440
487 100.0000 73.41270 46.26680 62.05989 59.07423 22.01774
488 20.63590 11.20670 0.000000 1.919526 1.673868 0.340920
489 47.91610 17.75970 0.000000 8.731509 6.160389 0.425835
490 50.19070 21.93410 33.27940 12.06544 8.518803 9.968499
491 55.08490 31.38830 43.94570 16.87675 13.02567 17.32316
492 35.40200 43.77600 30.43120 10.96679 13.77087 9.052534
493 37.68460 55.92490 36.75060 15.86139 21.90336 13.03278
494 43.17430 69.01450 36.00240 22.69991 33.53245 13.38647
495 40.73580 87.88780 40.63880 32.48999 54.05191 18.14600
496 61.33460 88.04930 49.42430 42.40949 60.04719 25.61964
497 71.75700 88.91870 58.57940 50.68071 65.21643 35.43504
498 0.000000 0.000000 0.000000 0.106840 0.112202 0.123815
499 26.62080 0.000000 38.80020 4.998829 2.609159 12.89050
500 27.38040 0.000000 81.14920 15.75617 7.633720 64.92187
501 48.60430 0.000000 81.67010 21.67337 10.96337 65.68638
502 71.31840 0.000000 82.80470 33.25195 17.41481 67.92610
503 80.68540 0.000000 100.0000 47.20775 24.38322 105.2967
504 6.956600 15.57740 18.38280 1.650648 1.939761 3.310161
505 15.76270 15.33830 21.38670 2.400874 2.295317 4.222844
506 35.63660 19.35040 27.48250 6.671202 5.148606 6.689033
507 64.53800 24.05450 31.77320 18.89266 12.75488 9.054251
508 36.58160 29.88070 12.34170 7.091705 7.381624 1.994427
509 40.18450 46.09050 18.57780 11.80028 15.21433 4.089873
510 46.22580 69.08890 21.11880 22.15997 33.38385 6.243857
511 73.48160 83.05730 44.92810 45.40654 57.03792 21.35038
512 34.43090 0.000000 100.0000 25.33842 12.05650 104.8025
513 49.29500 24.61970 100.0000 31.79999 18.07001 105.7814
514 67.87620 25.53490 100.0000 40.44349 23.10831 105.7338
515 13.08270 50.22830 42.33380 10.62757 15.94753 16.79663
516 29.13230 58.40810 46.43200 16.26759 23.27328 20.42963
517 39.06710 59.14410 52.51580 20.25539 25.87329 26.36087
518 49.80580 64.64260 63.23100 28.48495 33.66311 39.41716
519 54.54400 73.24790 76.55620 38.30392 44.73117 59.16305
520 53.63280 80.41110 77.57730 41.87696 51.96594 62.15986
521 50.54860 87.53800 63.17810 40.31766 57.77668 41.32828
522 64.76880 88.39180 66.10990 48.36041 62.97056 45.64296
523 80.48690 89.46880 67.56510 59.36218 70.21226 47.72721
524 30.83100 19.45500 36.15690 6.566009 5.073483 11.34316
525 42.58380 27.48820 38.75820 10.96354 8.860593 13.55135
526 62.26060 44.94000 55.05630 25.50600 22.14948 28.26002
527 78.29120 69.60910 86.13910 53.94555 50.72068 77.04766
528 8.609700 64.60680 45.48490 16.04905 26.85587 20.04925
529 15.35520 67.02160 55.16870 19.55207 30.18614 29.90667
530 11.80730 72.13950 66.47290 24.42214 36.11478 44.58120
531 0.000000 81.30990 71.13790 29.65596 45.84469 51.32346
532 0.000000 82.57710 83.55760 34.74430 49.59293 72.43925
533 0.000000 100.0000 86.51590 47.13237 73.75384 79.75849
534 76.81000 33.05990 45.40140 29.52814 20.58788 18.76115
535 92.81050 34.87850 52.65490 43.60485 29.04807 25.70197
536 100.0000 45.22770 65.27890 55.45412 38.91451 41.13497
537 47.28130 0.000000 17.70010 8.382500 4.711798 2.909686
538 57.52040 15.30120 19.98280 13.49970 8.575845 3.776343
539 75.82190 28.96270 21.46290 25.19904 17.49190 4.653226
540 88.76390 55.55660 36.37800 42.69400 36.97616 12.92481
541 88.69520 76.38190 67.07640 58.18589 58.56126 46.12888
542 60.37270 58.36710 40.26850 25.93181 28.89625 15.69642
543 93.23510 77.41250 44.14640 57.10724 58.99497 20.31648
544 24.99920 21.61430 8.334300 3.475192 3.753283 1.199766
545 32.41390 34.77280 7.446800 6.892088 8.653374 1.406048
546 38.50800 39.55540 22.36870 9.937596 11.65105 5.052953
547 49.61570 45.92140 31.27170 16.17122 17.46745 9.531947
548 56.34990 48.53210 42.08810 21.15597 21.30299 16.56287
549 76.68030 49.01770 61.90060 36.94811 30.07502 37.27419
550 23.07650 6.168700 18.70410 2.668427 1.732713 3.389615
551 23.75780 6.411800 27.06900 3.404320 2.093746 6.263164
552 26.55510 11.65280 38.12550 5.320958 3.395690 12.39644
553 10.51680 37.34750 34.91190 6.228875 8.811301 10.99854
554 16.79570 41.21640 42.71890 8.677064 11.28452 16.70515
555 37.80720 43.36910 48.34300 14.01573 15.12011 21.57004
556 40.06870 52.43720 52.59010 18.12855 21.19559 25.95966
557 49.66430 55.80560 60.35330 24.35564 26.09691 35.26911
558 0.000000 79.80290 38.98750 21.56725 40.53824 15.99569
559 5.621000 84.88860 66.63730 30.51891 49.44451 45.51098
560 23.78670 91.30110 68.49130 37.18525 59.45151 49.48369
561 18.91400 87.24360 44.41920 27.88236 50.59221 20.71102
562 57.52540 100.0000 51.43430 49.13488 75.91347 28.80204
563 73.93580 100.0000 54.68650 58.95466 81.35215 32.56097
564 87.17730 100.0000 63.51130 70.68581 87.82779 44.03230
565 44.65150 53.03130 12.94140 14.93700 19.94378 3.007013
566 68.01880 55.65680 29.48110 27.47489 28.40948 9.125099
567 87.51260 64.00430 40.81640 45.56010 43.27672 16.60635
568 89.19060 84.37780 42.50180 57.02769 64.64863 19.61363
569 20.46550 46.07760 0.000000 6.944230 12.24274 1.131303
570 26.34690 65.08760 0.000000 14.36070 26.33041 2.143455
571 35.78150 82.00600 0.000000 24.44586 44.37327 3.408898
572 44.17630 90.10030 30.59020 33.81992 57.07552 12.20389
573 62.36160 100.0000 38.58810 49.28930 76.25957 18.11109
574 0.000000 60.53970 19.42100 10.83697 21.38226 5.004020
575 17.40160 66.67620 32.77450 15.78717 28.09370 11.44193
576 86.58830 68.07080 77.57970 55.99401 51.23313 61.48772
577 94.38690 70.24270 87.67060 67.19295 58.44342 80.17106
578 100.0000 77.97490 100.0000 81.75807 72.00178 108.8534
579 88.34300 55.83260 49.90840 44.66970 37.93580 23.61542
580 100.0000 64.50930 49.65440 58.41267 50.77545 24.33125
581 27.23750 90.10750 11.52610 27.94603 53.90980 5.444839
582 55.63500 92.97580 11.13420 38.52713 62.56468 5.690787
583 69.23410 100.0000 24.52680 51.42877 77.45400 10.49888
584 18.72340 60.86090 12.48110 11.90754 22.44207 3.288204
585 50.70060 69.78930 60.68170 30.26374 37.98125 36.53264
586 71.21550 73.31300 81.56660 49.15905 50.71832 68.77512
587 72.62180 82.93930 89.64820 57.95243 62.68343 85.00040
588 73.72410 90.60030 92.44450 64.54471 73.38463 91.91577
589 86.12750 90.36430 96.01360 74.67994 78.63982 99.39572
590 13.64560 15.93050 0.000000 1.493900 1.944052 0.391680
591 39.58510 16.98460 10.97070 6.402048 4.764624 1.602614
592 29.63530 0.000000 24.41490 3.967092 2.179310 5.084114
593 48.15020 9.121900 25.91240 9.594594 5.767352 5.854458
594 59.34450 13.21290 30.02760 14.86525 9.029186 8.195179
595 84.57360 14.41080 46.75890 33.25854 19.33747 19.48215
596 100.0000 39.24860 48.23250 50.41303 34.27246 22.04548
597 100.0000 67.67830 63.59750 63.34350 55.68197 40.85214
598 100.0000 88.40400 73.82820 76.78258 79.01989 57.19747
599 12.10200 16.63860 27.40060 2.698653 2.548756 6.613112
600 13.49360 21.56660 27.08950 3.156194 3.445444 6.552412
601 19.14200 28.70660 29.78200 4.967430 5.859017 8.034726
602 54.38600 62.44170 31.15210 23.50508 29.81027 10.31100
603 60.64980 73.62170 27.42880 31.05705 41.78990 9.174793
604 73.18350 77.84020 28.06240 40.12110 49.84561 9.752489
605 79.94460 90.22460 30.08090 52.28819 67.56122 12.23268
606 100.0000 100.0000 77.93720 86.41710 96.39322 66.04289
607 100.0000 100.0000 90.06480 90.94107 98.40689 88.29237
608 6.799700 20.94430 9.244800 1.650056 2.621756 1.355156
609 11.01130 34.00050 56.98710 9.553197 9.388796 30.24284
610 15.57310 56.91770 64.87930 17.73667 22.80945 40.28701
611 13.17390 69.06180 77.39770 26.32237 34.72134 60.15473
612 40.48280 73.71300 90.91920 39.03203 44.82503 86.76538
613 17.35300 9.498000 19.22910 2.079769 1.592824 3.504493
614 26.39100 16.33650 19.05520 3.762106 3.208053 3.561024
615 35.12490 44.83190 38.94790 12.28157 14.71968 14.09263
616 42.59010 73.86400 67.32440 31.45494 41.39774 46.07173
617 51.03640 83.48170 69.70600 40.02462 53.86539 50.32303
618 63.09540 91.52110 84.85460 55.74542 69.44154 76.26930
619 14.84750 14.78920 89.79640 17.93143 9.427334 81.25504
620 43.62750 32.51640 89.47970 25.95780 17.17092 81.52875
621 58.86890 40.61510 100.0000 38.66153 26.31878 106.3477
622 45.01040 0.000000 27.42660 8.260035 4.575267 6.404050
623 59.57010 0.000000 43.99430 16.25869 8.883194 16.72317
624 70.29230 20.71090 46.64270 23.72616 14.76590 19.37355
625 88.36880 41.84850 47.96260 40.24611 29.41781 21.32034
626 26.66780 9.224100 3.483700 2.755184 2.031737 0.568845
627 40.43540 8.536000 12.29940 6.145040 3.869647 1.717016
628 54.83140 62.49090 14.39110 22.18880 29.14041 3.863476
629 82.42190 68.36660 49.93590 45.16529 45.68912 24.44839
630 90.50800 68.76260 57.72370 53.61314 50.63903 33.36956
631 92.40210 70.77920 72.83900 60.36151 55.42425 54.12226
632 11.57850 7.767500 0.000000 0.879874 0.870697 0.308457
633 19.13160 9.606700 5.832600 1.743744 1.457858 0.809839
634 31.23790 19.62080 7.894700 4.530074 4.101023 1.113416
635 45.00460 26.97280 18.59110 9.572884 8.177028 3.498844
636 46.75070 30.46530 36.04340 12.33014 10.38257 11.49215
637 0.000000 100.0000 23.43720 32.97829 67.16999 9.813408
638 26.59150 100.0000 66.87990 43.22272 72.29679 47.92029
639 50.94390 100.0000 74.21700 52.38779 77.31683 58.78492
640 0.000000 65.51140 38.43270 14.83344 26.67883 14.59889
641 37.95190 71.24560 44.65020 23.44767 35.56572 19.90488
642 64.95780 71.76090 54.22010 36.44837 43.03129 29.24261
643 80.24700 72.77000 81.09970 54.83290 53.67908 68.11660
644 14.00720 9.175200 61.17220 8.048881 4.318613 34.53105
645 58.42760 23.29540 67.03100 22.54895 13.97760 43.17247
646 89.44780 26.70960 67.86560 43.26924 26.33690 44.48379
647 90.99150 37.10470 82.89300 51.32049 33.26330 69.15904
648 100.0000 49.40420 86.21380 63.83214 44.80476 75.99800
649 100.0000 0.000000 51.43340 46.63162 25.88051 23.73798
650 100.0000 0.000000 66.87110 50.51552 27.66140 43.06346
651 0.000000 48.50470 53.58120 11.45363 15.41666 26.67492
652 0.000000 62.11940 56.60830 16.70230 25.17206 30.75385
653 0.000000 66.62200 69.71070 22.27262 30.96564 48.87797
654 74.24610 89.61410 85.39890 61.30115 71.08444 77.36612
655 89.10130 100.0000 89.50920 80.86739 92.72837 86.48655
656 81.80220 28.01170 0.000000 28.44566 19.01560 0.660484
657 89.57980 34.55010 20.41410 36.20636 25.08517 4.378871
658 92.61660 48.20970 21.25400 42.09267 33.20698 5.237269
659 100.0000 55.48830 32.93570 52.46167 42.39431 11.11049
660 44.13930 25.16260 8.151100 8.632350 7.225540 1.284999
661 48.03300 26.12360 28.43380 11.19084 8.811030 7.315733
662 49.94470 26.57430 56.61890 16.60419 11.55383 29.54989
663 16.43110 25.54410 70.02790 12.21916 8.471285 47.67713
664 16.66350 33.23010 90.80500 20.88405 14.45065 84.40173
665 61.02640 77.03550 90.53460 48.65527 52.64089 86.30561
666 100.0000 100.0000 100.0000 95.40839 100.3209 110.8074
667 19.35750 12.29390 75.00270 12.70783 6.790632 54.30023
668 27.01530 25.11980 81.91830 17.64313 11.03522 67.08099
669 41.43160 55.17800 82.87860 28.48042 27.69713 69.85875
670 33.40730 26.76450 35.55230 7.700947 6.849156 11.17487
671 40.29540 41.25850 34.51420 12.21359 13.44447 11.13883
672 59.00940 42.08270 34.47730 19.40244 17.77134 11.27659
673 69.26010 50.26520 46.58320 28.98335 26.35765 20.46455
674 74.49910 66.01370 55.88100 39.95379 41.07042 30.48781
675 23.23550 23.88470 15.40020 3.770070 4.307920 2.610921
676 23.01860 35.60280 32.57960 6.967080 8.752934 9.612230
677 27.63210 39.58470 49.66060 11.10428 11.98044 22.53844
678 30.01590 34.60760 51.75610 10.95928 10.39521 24.20092
679 39.21820 52.48790 62.48690 20.34043 22.25170 37.75187
680 57.59580 60.29240 70.42950 32.29916 32.96415 49.82362
681 75.63840 65.29860 69.96650 44.38274 42.95733 49.18524
682 14.99760 23.65550 6.793400 2.391163 3.449502 1.019421
683 14.27890 34.84920 8.983200 4.072882 7.005502 1.613327
684 15.21290 43.97380 10.55510 6.181332 11.08562 2.165448
685 59.03710 46.73900 29.18930 20.09858 20.07365 8.287192
686 63.75240 54.84670 52.72490 28.68337 28.33949 26.27341
687 80.62060 62.37830 56.46850 42.99297 40.58310 31.23220
688 100.0000 0.000000 13.55210 42.21602 23.80146 2.137855
689 100.0000 23.94610 33.78720 45.35076 27.69274 10.44725
690 100.0000 23.22830 49.23470 47.68723 28.61864 22.25852
691 100.0000 26.78800 80.84740 56.88258 33.64940 65.44030
692 27.35970 55.49790 21.89820 11.97551 19.59464 5.660272
693 28.73970 64.06950 57.03790 20.49931 28.70621 31.37665
694 33.69720 67.09550 66.45240 25.38524 33.29348 43.63122
695 39.67780 77.87550 79.56510 36.40750 47.07395 65.00239
696 82.00100 88.74890 83.23770 65.27249 72.39359 73.24331
697 89.49720 11.02950 14.68450 33.13683 19.23161 2.346262
698 88.81450 19.24260 23.56180 33.76851 20.46123 5.234179
699 88.61950 31.76580 33.16030 36.19389 24.15190 10.22364
700 100.0000 39.66500 32.21350 47.95347 33.20484 9.931652
701 100.0000 51.37190 46.30990 53.08447 40.61873 20.51315
702 100.0000 64.86730 73.46150 64.77115 54.08658 54.74261
703 8.420000 6.134700 15.64000 1.040846 0.828443 2.425449
704 8.434800 6.031900 23.14840 1.482112 1.015676 4.605983
705 12.87300 8.140200 44.75040 4.425162 2.567364 17.34149
706 29.56640 25.91560 46.93150 8.554251 7.013596 19.83046
707 43.01730 32.50760 60.87230 16.28290 12.63571 34.72247
708 62.72410 29.46160 10.67030 17.12136 13.00052 1.774579
709 63.14210 39.07450 13.09750 19.20903 16.84851 2.486444
710 75.61310 49.75780 19.87800 29.70201 26.87687 4.742463
711 33.14490 21.33400 0.000000 4.812292 4.429073 0.461926
712 34.36490 25.27670 27.05890 6.868718 6.136742 6.636359
713 36.07810 31.01010 27.17730 8.162210 8.185365 6.743246
714 40.99840 34.01150 38.87310 11.56828 10.81195 13.69485
715 44.94010 45.79050 55.21610 18.34334 18.32747 28.57170
716 72.43160 80.31790 70.12240 49.45415 56.44141 51.10994
717 76.78070 100.0000 90.24540 72.40189 87.97876 88.31190
718 88.13220 100.0000 100.0000 85.20463 94.57325 110.8669
719 86.55140 92.16700 50.03440 61.24839 74.24136 26.99056
720 100.0000 100.0000 61.19030 81.18847 93.82925 40.86507
721 0.000000 0.000000 0.000000 0.106728 0.112264 0.123300
722 16.63100 0.000000 29.68950 2.490779 1.300847 7.500378
723 16.24450 17.35370 56.94640 7.733285 5.003186 29.66427
724 63.75930 19.22380 60.14580 23.05030 13.85984 33.39655
725 0.000000 37.43140 15.17860 4.034169 7.638397 2.877211
726 0.000000 50.61080 22.76100 7.723806 14.55956 5.553704
727 42.66480 51.04410 30.35800 15.04843 19.00904 9.111284
728 69.28300 54.30590 58.64540 32.93146 30.28618 33.25509
729 68.05890 53.93760 76.65410 37.33698 32.31641 58.25896
730 73.27060 58.64660 89.54280 47.06976 39.79641 82.47388
731 63.32040 11.20750 88.54440 31.31724 16.66610 79.30748
732 84.33690 26.45630 100.0000 51.89515 29.71687 106.3800
733 0.000000 39.77850 27.71360 5.310087 8.895871 7.109794
734 56.85440 43.41540 70.81480 26.73770 21.79071 49.45458
735 57.17650 54.26680 86.33230 35.50639 30.89023 76.19741
736 69.33620 66.56910 93.04730 49.28981 45.73258 90.17511
737 74.35300 79.47040 94.09300 59.13511 60.48135 93.91251
738 65.52570 0.000000 24.25180 16.86810 9.451019 5.158714
739 82.77810 8.097000 26.82680 28.70136 16.46464 6.350267
740 87.06950 32.08700 57.35350 39.27224 25.61918 30.86010
741 0.000000 17.54710 52.97600 5.836746 4.058542 24.70546
742 0.000000 18.21760 66.81330 9.398966 5.765194 42.17018
743 0.000000 32.46670 76.09490 13.98235 10.82890 56.21306
744 0.000000 44.16390 78.64710 17.36855 16.41369 61.13824
745 0.000000 57.59310 83.43950 23.30407 25.64778 71.05767
746 33.03680 0.000000 13.85720 3.984724 2.251952 1.986549
747 48.72570 16.66460 22.35240 9.980173 6.694476 4.544484
748 53.44820 26.28760 23.22620 12.82309 9.801613 5.084696
749 66.39330 28.45860 25.74020 19.66311 14.22020 6.261572
750 70.55840 39.49630 37.24050 25.51038 20.37635 12.90546
751 84.50140 42.66360 39.18880 36.01232 27.43716 14.47543
752 24.37300 36.26630 0.000000 5.339178 8.022124 0.792772
753 39.86130 43.21810 0.000000 10.22743 13.08284 1.037925
754 40.97410 73.86520 8.228500 21.91524 36.57188 3.514998
755 100.0000 78.62980 0.000000 60.51323 62.44547 3.310472
756 74.01220 61.19420 12.33200 32.05301 34.14846 3.336549
757 72.55150 69.87950 12.01960 34.60374 41.08763 3.889707
758 89.20100 74.06610 23.78230 49.39778 52.50707 7.792646
759 23.94590 22.91810 0.000000 3.253799 3.808453 0.482912
760 24.95580 30.08030 11.03570 4.693691 6.103413 1.831432
761 31.51830 32.40940 22.50150 6.865900 7.843281 4.793351
762 33.53240 36.94700 66.40370 15.81386 13.47570 42.02406
763 0.000000 43.53120 40.45830 7.722930 11.48967 14.58444
764 21.16250 51.03570 65.28630 16.67741 19.34412 40.86648
765 23.68080 50.37320 73.93540 19.48028 20.30857 54.15744
766 35.99180 59.39300 75.22300 25.60762 28.29143 56.95018
767 50.74450 65.51210 77.69390 33.39399 36.39594 61.05134
768 10.31040 27.53720 21.40960 3.204826 4.618927 4.402949
769 24.35110 30.40010 24.78200 5.488164 6.612572 5.769634
770 26.07460 32.23390 38.94140 7.554548 8.008852 13.58222
771 32.93630 32.40090 73.64280 17.08314 12.74509 52.91282
772 58.83900 32.48260 86.95150 30.84572 20.00648 76.52973
773 71.82640 8.354300 50.79300 24.59564 13.82586 23.07339
774 80.50130 47.74940 51.96460 36.84112 29.68754 25.63859
775 87.26410 48.42970 60.93110 44.29963 33.95907 35.89526
776 10.82480 53.53630 19.28610 9.014094 16.90454 4.645904
777 13.51980 71.55510 23.86060 16.51476 31.69308 7.331166
778 29.90450 76.96230 63.12690 28.18302 41.84618 40.26955
779 48.13030 90.45590 88.74200 50.00749 65.24140 83.47799
780 54.18940 100.0000 90.29630 59.54608 80.70385 87.49843
781 20.24840 0.000000 48.79610 5.662264 2.827126 20.78063
782 31.87510 0.000000 64.72670 11.30422 5.646161 38.85402
783 36.15950 18.48570 70.59810 15.11330 8.967380 48.26269
784 0.000000 25.77450 14.47330 2.104972 3.648430 2.341032
785 12.02550 30.68630 16.71400 3.528486 5.523304 3.080478
786 28.23120 41.10820 16.69180 7.645507 10.96541 3.365654
787 27.96910 49.52770 46.76180 13.09409 16.99062 20.10625
788 33.49360 65.15710 73.59910 26.73378 32.57991 54.69662
789 36.99270 84.16470 91.40750 43.67828 55.83003 88.29978
790 43.24820 100.0000 100.0000 60.11786 80.35158 110.3901
791 26.22330 47.43720 37.40120 10.79983 15.00252 12.98387
792 43.38370 54.12010 43.26680 18.07300 22.10824 17.65165
793 48.69420 56.34230 51.03800 21.91733 25.26400 24.46074
794 50.13360 30.13550 0.000000 10.95234 9.611824 0.651422
795 51.10800 35.57050 12.07230 12.64286 12.09719 2.154088
796 69.19390 50.79950 9.581500 25.11100 24.75676 2.340753
797 87.15440 58.21020 13.09250 40.28060 36.99990 3.360154
798 40.17800 14.36330 31.29820 7.781911 5.161393 8.571795
799 44.65990 20.82350 41.27820 11.02956 7.664208 14.88701
800 34.25250 9.772800 33.84860 6.198634 3.824094 9.781982
801 40.86290 14.78490 86.62480 21.62284 11.65919 75.10998
802 80.08840 45.61240 100.0000 52.61279 35.98874 106.5632
803 100.0000 47.02500 100.0000 69.60904 46.35534 107.0102
804 32.06310 39.68760 87.67380 23.46740 17.90916 78.20544
805 30.95800 39.19350 100.0000 28.79135 20.12482 106.2170
806 69.32810 59.44810 100.0000 49.98901 41.29186 107.4915
807 0.000000 12.65270 27.50570 1.804286 1.587230 6.511967
808 17.56360 14.72270 31.86530 3.486940 2.784659 8.652598
809 26.50000 81.00380 100.0000 43.64736 52.57028 108.1331
810 100.0000 100.0000 100.0000 95.37068 100.2708 110.8959
811 46.44430 65.30590 49.12060 24.20252 31.92261 23.47227
812 60.67750 77.06680 59.84110 38.27598 47.93968 36.13351
813 14.01590 38.14360 54.18500 9.884647 10.75853 26.88698
814 23.86850 41.45490 78.32060 18.72306 16.27349 60.84882
815 75.17750 47.70340 77.74620 40.31754 31.03516 60.32267
816 78.95800 18.65600 70.20810 35.10389 20.30445 48.14746
817 92.94320 11.41020 71.26420 45.55713 25.32956 49.22622
818 83.08030 0.000000 78.25960 39.70415 21.20246 60.43319
819 82.96340 34.28700 88.71850 46.73336 29.40831 79.99609
820 42.38780 0.000000 52.03400 11.13354 5.834526 24.21041
821 51.09020 11.05550 51.71600 14.26704 8.187473 23.84689
822 61.96980 69.50160 63.88260 36.22285 41.06594 40.84376
823 74.22700 72.50660 65.44790 44.99718 48.20444 43.22669
824 87.20060 76.56350 74.68260 59.20496 58.88151 57.39427
825 92.85320 81.95280 86.63760 71.29319 69.84048 79.14566
END_DATA
CAL    

DESCRIPTOR "Argyll Device Calibration State"
ORIGINATOR "Argyll dispread"
CREATED "Tue May 26 14:52:48 2020"
DEVICE_CLASS "DISPLAY"
COLOR_REP "RGB"

BEGIN_ARGYLL_DISPCAL_ARGS
-v2 -qm -m -w0.3127,0.329 -gs -f1.0 -k0 -A4.0 -d1 -c1 -yn -P0.460483870968,0.465,1.86301369863 -F
END_ARGYLL_DISPCAL_ARGS


NUMBER_OF_FIELDS 4
BEGIN_DATA_FORMAT
RGB_I RGB_R RGB_G RGB_B
END_DATA_FORMAT

NUMBER_OF_SETS 256
BEGIN_DATA
0.00000000 0.00000000 0.00000000 0.00000000
0.00392157 0.00748776 0.00634185 0.00650800
0.00784314 0.01451510 0.01239530 0.01266570
0.01176470 0.02112330 0.01817960 0.01850070
0.01568630 0.02734860 0.02371230 0.02403770
0.01960780 0.03322330 0.02900950 0.02929900
0.02352940 0.03876480 0.03408590 0.03430390
0.02745100 0.04398370 0.03895260 0.03905950
0.03137250 0.04890580 0.04362270 0.04357540
0.03529410 0.05356360 0.04811900 0.04788040
0.03921570 0.05798400 0.05246340 0.05200260
0.04313730 0.06219690 0.05667800 0.05597370
0.04705880 0.06623660 0.06078360 0.05982290
0.05098040 0.07013830 0.06479580 0.06357470
0.05490200 0.07393320 0.06873270 0.06725370
0.05882350 0.07764380 0.07260970 0.07088090
0.06274510 0.08128280 0.07644170 0.07447660
0.06666670 0.08486440 0.08024160 0.07805840
0.07058820 0.08839570 0.08401670 0.08163990
0.07450980 0.09189710 0.08777290 0.08522560
0.07843140 0.09537020 0.09151150 0.08882450
0.08235290 0.09882760 0.09524410 0.09243770
0.08627450 0.10227200 0.09896940 0.09606990
0.09019610 0.10570100 0.10269300 0.09972170
0.09411760 0.10913000 0.10641400 0.10338400
0.09803920 0.11255600 0.11012500 0.10705500
0.10196100 0.11597600 0.11382600 0.11072200
0.10588200 0.11938800 0.11751500 0.11438000
0.10980400 0.12280700 0.12118900 0.11802200
0.11372500 0.12622400 0.12484900 0.12165300
0.11764700 0.12963700 0.12850400 0.12526800
0.12156900 0.13304100 0.13215200 0.12886600
0.12549000 0.13643700 0.13579200 0.13243800
0.12941200 0.13984100 0.13941900 0.13599400
0.13333300 0.14324500 0.14304100 0.13953800
0.13725500 0.14664900 0.14666400 0.14306900
0.14117600 0.15005500 0.15028500 0.14659400
0.14509800 0.15345800 0.15390400 0.15010500
0.14902000 0.15685300 0.15751900 0.15360000
0.15294100 0.16024900 0.16112300 0.15708400
0.15686300 0.16365600 0.16472100 0.16056800
0.16078400 0.16706600 0.16832100 0.16404700
0.16470600 0.17047400 0.17192100 0.16751600
0.16862700 0.17388200 0.17551600 0.17097900
0.17254900 0.17729300 0.17910600 0.17443600
0.17647100 0.18069500 0.18269500 0.17786900
0.18039200 0.18407900 0.18627000 0.18128200
0.18431400 0.18745100 0.18982500 0.18467600
0.18823500 0.19081300 0.19336900 0.18805200
0.19215700 0.19417800 0.19689900 0.19142200
0.19607800 0.19755300 0.20042000 0.19478700
0.20000000 0.20092600 0.20394000 0.19814500
0.20392200 0.20430000 0.20745500 0.20149500
0.20784300 0.20767400 0.21096700 0.20483600
0.21176500 0.21106300 0.21447300 0.20817800
0.21568600 0.21447000 0.21797700 0.21152700
0.21960800 0.21789600 0.22148600 0.21487000
0.22352900 0.22132600 0.22499800 0.21820600
0.22745100 0.22475800 0.22850300 0.22154800
0.23137300 0.22820200 0.23200400 0.22489900
0.23529400 0.23165300 0.23551300 0.22825100
0.23921600 0.23511200 0.23902900 0.23160500
0.24313700 0.23858100 0.24255000 0.23496400
0.24705900 0.24207500 0.24607600 0.23834200
0.25098000 0.24559300 0.24961300 0.24173400
0.25490200 0.24912000 0.25316800 0.24513500
0.25882400 0.25265100 0.25672800 0.24854200
0.26274500 0.25618300 0.26029300 0.25195100
0.26666700 0.25971400 0.26386100 0.25536400
0.27058800 0.26323700 0.26743800 0.25877000
0.27451000 0.26675800 0.27102000 0.26217900
0.27843100 0.27029400 0.27461000 0.26560000
0.28235300 0.27385000 0.27821600 0.26904000
0.28627500 0.27742500 0.28184500 0.27249500
0.29019600 0.28100100 0.28550400 0.27594400
0.29411800 0.28455000 0.28918000 0.27938400
0.29803900 0.28807400 0.29285300 0.28282600
0.30196100 0.29158300 0.29652800 0.28627900
0.30588200 0.29508900 0.30020900 0.28974600
0.30980400 0.29859500 0.30390400 0.29323000
0.31372500 0.30209400 0.30761500 0.29671500
0.31764700 0.30558600 0.31133600 0.30021100
0.32156900 0.30907800 0.31506100 0.30371100
0.32549000 0.31257000 0.31879600 0.30721700
0.32941200 0.31606300 0.32253500 0.31072700
0.33333300 0.31956000 0.32627800 0.31424700
0.33725500 0.32306900 0.33002500 0.31778200
0.34117600 0.32660600 0.33378300 0.32132100
0.34509800 0.33015700 0.33755000 0.32486000
0.34902000 0.33372000 0.34131500 0.32839800
0.35294100 0.33729700 0.34507600 0.33193500
0.35686300 0.34088600 0.34883500 0.33547100
0.36078400 0.34448800 0.35259100 0.33899900
0.36470600 0.34810700 0.35634400 0.34252900
0.36862700 0.35175600 0.36009600 0.34606200
0.37254900 0.35542400 0.36385800 0.34958200
0.37647100 0.35909600 0.36761800 0.35309500
0.38039200 0.36277400 0.37136900 0.35660700
0.38431400 0.36646900 0.37511600 0.36011900
0.38823500 0.37017500 0.37886600 0.36362800
0.39215700 0.37388900 0.38261800 0.36714100
0.39607800 0.37762300 0.38637100 0.37067400
0.40000000 0.38138300 0.39013700 0.37423700
0.40392200 0.38517200 0.39392300 0.37783200
0.40784300 0.38898700 0.39773500 0.38144400
0.41176500 0.39278900 0.40156900 0.38504000
0.41568600 0.39655500 0.40539700 0.38861600
0.41960800 0.40028200 0.40920400 0.39217500
0.42352900 0.40397700 0.41299600 0.39573200
0.42745100 0.40765300 0.41677800 0.39929800
0.43137300 0.41131500 0.42055900 0.40286900
0.43529400 0.41496300 0.42433800 0.40644200
0.43921600 0.41860600 0.42810800 0.41002600
0.44313700 0.42224100 0.43187500 0.41361400
0.44705900 0.42586800 0.43563900 0.41721100
0.45098000 0.42949800 0.43940000 0.42082300
0.45490200 0.43312700 0.44316800 0.42444000
0.45882400 0.43673900 0.44694300 0.42805400
0.46274500 0.44033200 0.45071400 0.43167100
0.46666700 0.44392500 0.45448000 0.43530200
0.47058800 0.44752300 0.45825300 0.43894600
0.47451000 0.45111900 0.46204100 0.44258600
0.47843100 0.45471800 0.46583500 0.44623500
0.48235300 0.45832800 0.46963400 0.44988800
0.48627500 0.46194600 0.47344400 0.45355000
0.49019600 0.46556800 0.47726500 0.45722400
0.49411800 0.46919100 0.48110100 0.46090900
0.49803900 0.47281500 0.48495000 0.46460400
0.50196100 0.47644000 0.48881400 0.46831000
0.50588200 0.48006600 0.49269400 0.47202900
0.50980400 0.48369800 0.49658800 0.47577300
0.51372500 0.48736200 0.50050500 0.47952400
0.51764700 0.49103200 0.50444200 0.48327800
0.52156900 0.49470500 0.50838400 0.48703500
0.52549000 0.49838100 0.51233200 0.49079500
0.52941200 0.50206000 0.51628600 0.49456000
0.53333300 0.50574300 0.52024400 0.49832700
0.53725500 0.50943300 0.52420600 0.50209200
0.54117600 0.51313300 0.52817300 0.50585800
0.54509800 0.51684800 0.53213900 0.50961400
0.54902000 0.52057300 0.53610600 0.51336900
0.55294100 0.52431000 0.54006600 0.51712900
0.55686300 0.52806800 0.54403600 0.52087800
0.56078400 0.53183100 0.54801600 0.52461400
0.56470600 0.53558900 0.55198700 0.52833900
0.56862700 0.53935000 0.55595300 0.53204700
0.57254900 0.54312000 0.55991600 0.53574700
0.57647100 0.54690600 0.56387500 0.53945100
0.58039200 0.55071700 0.56784100 0.54315400
0.58431400 0.55454800 0.57181800 0.54683100
0.58823500 0.55836200 0.57578600 0.55048300
0.59215700 0.56214300 0.57972700 0.55412400
0.59607800 0.56589300 0.58365000 0.55776300
0.60000000 0.56962300 0.58756500 0.56139100
0.60392200 0.57333100 0.59146900 0.56501400
0.60784300 0.57701800 0.59536200 0.56863300
0.61176500 0.58068400 0.59924400 0.57226100
0.61568600 0.58434800 0.60312100 0.57589800
0.61960800 0.58800800 0.60699700 0.57953900
0.62352900 0.59166400 0.61087200 0.58319100
0.62745100 0.59531900 0.61474800 0.58684000
0.63137300 0.59896900 0.61862200 0.59048600
0.63529400 0.60261100 0.62248500 0.59413200
0.63921600 0.60624800 0.62634200 0.59777600
0.64313700 0.60988700 0.63019900 0.60140600
0.64705900 0.61352500 0.63405600 0.60502400
0.65098000 0.61715900 0.63790600 0.60863800
0.65490200 0.62080800 0.64175900 0.61226100
0.65882400 0.62448300 0.64561900 0.61590700
0.66274500 0.62820000 0.64949900 0.61958800
0.66666700 0.63196700 0.65340500 0.62331000
0.67058800 0.63578600 0.65734400 0.62707300
0.67451000 0.63965800 0.66131300 0.63087600
0.67843100 0.64358100 0.66531400 0.63467700
0.68235300 0.64754400 0.66933200 0.63843700
0.68627500 0.65147600 0.67331100 0.64215400
0.69019600 0.65536700 0.67724500 0.64582700
0.69411800 0.65921700 0.68113300 0.64946100
0.69803900 0.66302600 0.68498200 0.65307100
0.70196100 0.66679600 0.68880300 0.65667200
0.70588200 0.67054100 0.69261300 0.66028100
0.70980400 0.67427700 0.69642700 0.66389500
0.71372500 0.67800900 0.70024800 0.66751800
0.71764700 0.68175100 0.70408200 0.67113900
0.72156900 0.68550100 0.70793100 0.67475100
0.72549000 0.68925100 0.71179300 0.67835900
0.72941200 0.69300600 0.71567100 0.68196500
0.73333300 0.69677200 0.71957200 0.68557200
0.73725500 0.70054600 0.72349300 0.68918700
0.74117600 0.70433200 0.72743800 0.69279300
0.74509800 0.70811300 0.73139100 0.69639200
0.74902000 0.71188400 0.73534500 0.69999300
0.75294100 0.71565900 0.73930600 0.70359700
0.75686300 0.71944200 0.74327000 0.70720900
0.76078400 0.72323800 0.74723500 0.71083500
0.76470600 0.72705300 0.75120600 0.71448100
0.76862700 0.73088600 0.75518200 0.71814400
0.77254900 0.73473100 0.75916100 0.72182600
0.77647100 0.73858900 0.76314500 0.72552700
0.78039200 0.74245900 0.76713400 0.72925400
0.78431400 0.74634000 0.77113000 0.73299000
0.78823500 0.75022000 0.77512100 0.73673800
0.79215700 0.75409600 0.77910600 0.74048900
0.79607800 0.75797900 0.78308600 0.74424000
0.80000000 0.76187200 0.78706100 0.74800300
0.80392200 0.76579200 0.79104300 0.75178900
0.80784300 0.76974400 0.79504400 0.75560100
0.81176500 0.77372400 0.79906900 0.75942400
0.81568600 0.77771000 0.80310400 0.76321900
0.81960800 0.78165400 0.80711400 0.76698400
0.82352900 0.78555600 0.81109800 0.77072500
0.82745100 0.78942500 0.81506400 0.77445800
0.83137300 0.79328200 0.81902400 0.77819800
0.83529400 0.79715000 0.82299100 0.78194300
0.83921600 0.80103100 0.82696600 0.78568900
0.84313700 0.80492300 0.83094900 0.78944100
0.84705900 0.80883300 0.83494300 0.79320400
0.85098000 0.81276700 0.83895100 0.79697800
0.85490200 0.81672500 0.84297500 0.80075400
0.85882400 0.82071100 0.84700900 0.80454500
0.86274500 0.82473900 0.85106500 0.80836100
0.86666700 0.82881100 0.85515000 0.81219700
0.87058800 0.83290100 0.85926100 0.81602600
0.87451000 0.83697000 0.86336600 0.81984200
0.87843100 0.84101900 0.86746300 0.82365900
0.88235300 0.84506900 0.87156400 0.82748200
0.88627500 0.84912000 0.87566800 0.83131200
0.89019600 0.85318000 0.87978400 0.83514700
0.89411800 0.85725000 0.88391200 0.83899800
0.89803900 0.86133300 0.88805400 0.84286700
0.90196100 0.86540800 0.89220700 0.84673600
0.90588200 0.86946900 0.89635800 0.85061000
0.90980400 0.87352100 0.90052000 0.85450000
0.91372500 0.87758100 0.90470200 0.85840900
0.91764700 0.88165300 0.90891200 0.86233400
0.92156900 0.88571300 0.91313700 0.86625900
0.92549000 0.88976300 0.91736600 0.87019600
0.92941200 0.89381600 0.92160700 0.87415500
0.93333300 0.89786400 0.92586100 0.87811900
0.93725500 0.90190500 0.93011700 0.88208600
0.94117600 0.90595100 0.93438400 0.88605700
0.94509800 0.90999500 0.93865700 0.89002500
0.94902000 0.91404800 0.94294500 0.89399500
0.95294100 0.91811100 0.94724700 0.89796600
0.95686300 0.92218700 0.95156300 0.90193700
0.96078400 0.92627400 0.95588800 0.90591000
0.96470600 0.93037000 0.96022300 0.90988000
0.96862700 0.93447200 0.96456900 0.91385000
0.97254900 0.93858300 0.96892400 0.91782100
0.97647100 0.94270100 0.97329000 0.92179400
0.98039200 0.94682700 0.97766600 0.92576900
0.98431400 0.95095900 0.98205200 0.92974600
0.98823500 0.95509800 0.98645000 0.93372500
0.99215700 0.95924400 0.99085700 0.93770500
0.99607800 0.96339700 0.99527500 0.94168700
1.00000000 0.96755700 0.99970400 0.94567100
END_DATA
