CTI3   

DESCRIPTOR "Argyll Calibration Target chart information 3"
ORIGINATOR "Argyll dispread"
CREATED "Tue May 26 16:06:53 2020"
DEVICE_CLASS "DISPLAY"
SINGLE_DIM_STEPS "25"
COMP_GREY_STEPS "73"
DARK_REGION_EMPHASIS "1.6"
COLOR_REP "RGB_XYZ"
TARGET_INSTRUMENT "X-Rite i1 DisplayPro, ColorMunki Display"
DISPLAY_TYPE_REFRESH "NO"
DISPLAY_TYPE_BASE_ID "1"
INSTRUMENT_TYPE_SPECTRAL "NO"
LUMINANCE_XYZ_CDM2 "61.799292 65.006877 70.939260"
NORMALIZED_TO_Y_100 "YES"
VIDEO_LUT_CALIBRATION_POSSIBLE "YES"

BEGIN_ARGYLL_COLPROF_ARGS
-v -qh -aX -bn -C "No copyright. Created with DisplayCAL 3.8.9.3 and ArgyllCMS 2.1.1" -M "N121X5-L06" -A "Lenovo Group Limited"
END_ARGYLL_COLPROF_ARGS

OBSERVER "1931_2"
USE_BLACK_POINT_COMPENSATION "NO"
BLACK_POINT_CORRECTION "0.0"
HIRES_B2A "YES"
HIRES_B2A_SIZE "-1"
SMOOTH_B2A "YES"
PATCH_SEQUENCE "OPTIMIZE_DISPLAY_RESPONSE_DELAY"

NUMBER_OF_FIELDS 7
BEGIN_DATA_FORMAT
SAMPLE_ID RGB_R RGB_G RGB_B XYZ_X XYZ_Y XYZ_Z
END_DATA_FORMAT

NUMBER_OF_SETS 825
BEGIN_DATA
1 100.0000 100.0000 100.0000 95.06578 100.0000 109.1258
2 1.960800 1.960800 1.960800 0.668589 0.703172 0.783415
3 3.921600 3.921600 3.921600 0.800815 0.846041 0.961243
4 5.882400 5.882400 5.882400 0.982575 1.037683 1.180312
5 9.803900 9.803900 9.803900 1.409094 1.475514 1.696892
6 13.72600 13.72600 13.72600 2.107172 2.226054 2.535505
7 17.64700 17.64700 17.64700 3.062730 3.228112 3.613424
8 21.56900 21.56900 21.56900 4.120774 4.308387 4.861642
9 25.49000 25.49000 25.49000 5.488340 5.765550 6.437972
10 29.41200 29.41200 29.41200 6.928520 7.326065 8.131096
11 33.33300 33.33300 33.33300 8.822506 9.228990 10.02465
12 37.25500 37.25500 37.25500 11.00358 11.56994 12.81800
13 41.17600 41.17600 41.17600 13.70750 14.47101 15.85327
14 45.09800 45.09800 45.09800 16.53996 17.41782 18.86228
15 49.02000 49.02000 49.02000 19.69565 20.72862 22.50579
16 52.94100 52.94100 52.94100 23.22879 24.37153 26.44337
17 56.86300 56.86300 56.86300 27.10500 28.32003 31.02045
18 60.78400 60.78400 60.78400 31.21274 32.89819 35.89913
19 64.70600 64.70600 64.70600 35.67600 37.40408 40.96532
20 68.62700 68.62700 68.62700 40.91958 43.11677 46.77591
21 72.54900 72.54900 72.54900 46.33398 48.65587 53.19998
22 76.47100 76.47100 76.47100 52.14874 55.00165 59.91158
23 80.39200 80.39200 80.39200 57.93426 61.11971 66.94224
24 84.31400 84.31400 84.31400 64.27787 67.73898 73.97281
25 88.23500 88.23500 88.23500 71.20111 74.87824 82.17262
26 92.15700 92.15700 92.15700 78.84175 82.75063 90.66614
27 96.07800 96.07800 96.07800 86.05689 90.41861 99.74743
28 0.000000 30.49090 60.37150 8.724241 9.998369 29.10410
29 0.000000 41.79040 61.36620 11.20143 14.18482 31.02270
30 0.000000 40.95750 81.11830 16.64479 19.21011 57.15383
31 27.45100 48.23640 100.0000 29.74935 34.08347 94.98442
32 44.35390 63.66090 100.0000 39.45273 45.75148 97.95556
33 0.000000 80.39050 80.34080 31.92894 45.68736 62.69544
34 0.000000 89.36350 100.0000 45.74640 64.16458 101.9692
35 56.83520 0.000000 33.94740 13.99990 9.003921 10.27812
36 64.50400 13.55060 37.75090 18.70972 12.53248 13.02563
37 78.62520 68.37310 36.76080 40.56730 40.55890 19.32683
38 100.0000 69.60230 52.92450 62.28945 54.58516 32.44747
39 100.0000 78.75450 71.25200 71.46415 66.84195 54.89630
40 69.25320 0.000000 34.60240 20.53117 12.83877 11.04784
41 85.58480 0.000000 47.82640 32.59224 20.47476 20.88062
42 91.08320 6.738200 57.49570 39.45385 25.27652 30.06867
43 21.42860 0.000000 0.000000 2.222247 1.595135 0.992424
44 24.50980 0.000000 0.000000 2.616303 1.830834 1.052765
45 27.77780 0.000000 0.000000 3.199159 2.176299 1.135899
46 31.25000 0.000000 0.000000 3.899237 2.591538 1.233280
47 34.94620 0.000000 0.000000 4.755704 3.100787 1.351252
48 38.88890 0.000000 0.000000 5.683136 3.649301 1.478439
49 43.10350 0.000000 0.000000 7.066282 4.466943 1.661561
50 47.61910 0.000000 0.000000 8.607588 5.378509 1.864540
51 52.46910 0.000000 0.000000 10.51886 6.505389 2.103194
52 57.69230 0.000000 0.000000 12.57180 7.716877 2.355514
53 63.33330 0.000000 0.000000 15.09891 9.205139 2.657614
54 69.44440 0.000000 0.000000 18.88060 11.43152 3.083235
55 76.08700 0.000000 0.000000 22.86597 13.77026 3.506561
56 83.33330 0.000000 0.000000 27.61681 16.56571 3.982156
57 91.26980 0.000000 0.000000 34.16969 20.38573 4.556715
58 100.0000 100.0000 0.000000 74.12300 78.10818 17.84720
59 100.0000 100.0000 24.89000 75.46730 79.64378 22.27970
60 100.0000 100.0000 43.69190 77.62850 81.51633 31.59217
61 100.0000 0.000000 22.72100 43.43133 26.00764 8.838583
62 100.0000 24.98640 52.69920 49.29624 32.44416 26.83422
63 0.000000 10.68380 0.000000 0.862490 1.150270 0.891249
64 0.000000 13.15790 0.000000 1.026727 1.443792 0.979873
65 0.000000 15.76580 0.000000 1.223538 1.800713 1.080325
66 0.000000 18.51850 0.000000 1.441275 2.188940 1.189722
67 0.000000 21.42860 0.000000 1.717211 2.679008 1.324283
68 0.000000 24.50980 0.000000 2.068014 3.306109 1.492691
69 0.000000 27.77780 0.000000 2.510999 4.083263 1.702149
70 0.000000 31.25000 0.000000 2.996636 4.935983 1.933223
71 0.000000 34.94620 0.000000 3.593686 5.988837 2.211615
72 0.000000 38.88890 0.000000 4.417380 7.424597 2.590167
73 0.000000 43.10350 0.000000 5.422343 9.168352 3.046176
74 0.000000 47.61910 0.000000 6.578916 11.18336 3.572817
75 0.000000 52.46910 0.000000 8.028019 13.69456 4.214100
76 0.000000 57.69230 0.000000 9.815951 16.77784 4.997472
77 0.000000 63.33330 0.000000 11.76168 20.12270 5.834512
78 0.000000 69.44440 0.000000 14.61310 24.87040 7.006210
79 0.000000 76.08700 0.000000 17.86581 30.54327 8.355665
80 0.000000 84.77160 24.53490 23.66105 39.63433 14.41269
81 0.000000 100.0000 23.80960 32.37935 54.22006 17.29056
82 26.09970 100.0000 35.96750 35.91294 56.78631 22.92751
83 27.67880 100.0000 88.54630 49.22541 69.39996 81.53962
84 0.000000 63.59510 58.47270 17.56609 25.66567 31.10535
85 60.94320 65.23370 100.0000 47.09682 50.97851 99.09587
86 76.55250 69.39140 100.0000 58.34150 59.91940 101.1206
87 0.000000 0.000000 10.68380 0.737681 0.743812 1.506575
88 0.000000 0.000000 13.15790 0.826957 0.818456 1.949332
89 0.000000 0.000000 15.76580 0.905746 0.886278 2.341427
90 0.000000 0.000000 18.51850 1.055120 1.012387 3.058399
91 0.000000 0.000000 21.42860 1.228398 1.161308 3.918399
92 0.000000 0.000000 24.50980 1.384068 1.297132 4.678310
93 0.000000 0.000000 27.77780 1.650029 1.525342 5.952782
94 0.000000 0.000000 31.25000 1.900989 1.743945 7.162644
95 0.000000 0.000000 34.94620 2.233808 2.032001 8.726709
96 0.000000 0.000000 38.88890 2.708246 2.447140 11.00438
97 0.000000 0.000000 43.10350 3.228732 2.903650 13.44348
98 0.000000 0.000000 47.61910 3.889614 3.489588 16.56847
99 0.000000 0.000000 52.46910 4.779111 4.288033 20.79406
100 0.000000 0.000000 57.69230 5.745966 5.170277 25.35457
101 0.000000 0.000000 63.33330 6.863858 6.195236 30.59251
102 0.000000 0.000000 69.44440 8.487045 7.706319 38.13730
103 0.000000 0.000000 76.08700 10.50741 9.639899 47.44044
104 0.000000 0.000000 83.33330 12.78830 11.90681 57.92740
105 0.000000 0.000000 91.26980 16.01869 15.33509 72.36859
106 100.0000 30.69420 100.0000 65.81782 50.47329 97.33932
107 100.0000 73.17560 100.0000 80.25553 74.98904 103.6698
108 0.000000 1.938000 0.000000 0.600129 0.657898 0.691787
109 1.938000 1.938000 1.938000 0.668859 0.702986 0.782416
110 2.604200 2.604200 2.604200 0.721878 0.769050 0.847041
111 3.280800 3.280800 3.280800 0.742786 0.783111 0.880430
112 3.968300 3.968300 3.968300 0.800124 0.845769 0.960137
113 4.666700 4.666700 4.666700 0.883967 0.937402 1.062666
114 5.376300 5.376300 5.376300 0.930917 0.986230 1.119572
115 6.097600 6.097600 6.097600 1.015284 1.059512 1.227495
116 6.830600 6.830600 6.830600 1.034982 1.103077 1.240817
117 7.575800 7.575800 7.575800 1.157628 1.212230 1.399134
118 8.333300 8.333300 8.333300 1.231527 1.287698 1.484541
119 9.103600 9.103600 9.103600 1.305279 1.364548 1.571850
120 9.887000 9.887000 9.887000 1.408546 1.475828 1.695360
121 10.68380 10.68380 10.68380 1.513891 1.586743 1.817252
122 11.49420 11.49420 11.49420 1.653987 1.761099 1.960764
123 12.31880 12.31880 12.31880 1.824995 1.926110 2.099106
124 13.15790 13.15790 13.15790 2.036371 2.120611 2.387387
125 14.01180 14.01180 14.01180 2.164475 2.260386 2.541798
126 14.88100 14.88100 14.88100 2.295156 2.401271 2.703572
127 15.76580 15.76580 15.76580 2.545488 2.690713 2.922171
128 16.66670 16.66670 16.66670 2.778701 2.909667 3.251240
129 17.58410 17.58410 17.58410 3.064571 3.230565 3.611547
130 18.51850 18.51850 18.51850 3.206592 3.386247 3.785185
131 19.47040 19.47040 19.47040 3.564596 3.748430 4.155832
132 20.44020 20.44020 20.44020 3.715009 3.913905 4.340948
133 21.42860 21.42860 21.42860 4.117074 4.309691 4.858609
134 22.43590 22.43590 22.43590 4.389217 4.622483 5.095505
135 23.46280 23.46280 23.46280 4.714762 4.975034 5.470060
136 24.50980 24.50980 24.50980 5.048382 5.333763 5.865721
137 25.57760 25.57760 25.57760 5.486810 5.767570 6.431703
138 26.66670 26.66670 26.66670 5.906576 6.265061 6.874060
139 27.77780 27.77780 27.77780 6.369039 6.723903 7.475644
140 28.91160 28.91160 28.91160 6.742078 7.128448 7.895643
141 30.06870 30.06870 30.06870 7.268819 7.715403 8.563432
142 31.25000 31.25000 31.25000 7.853745 8.249748 9.042075
143 32.45610 32.45610 32.45610 8.451794 8.909878 9.752825
144 33.68790 33.68790 33.68790 8.963895 9.424060 10.34337
145 34.94620 34.94620 34.94620 9.696739 10.15791 11.06154
146 36.23190 36.23190 36.23190 10.36947 10.88162 12.07619
147 37.54580 37.54580 37.54580 11.31399 11.91274 13.16715
148 38.88890 38.88890 38.88890 11.99369 12.63589 13.91783
149 40.26220 40.26220 40.26220 13.00640 13.72418 15.06243
150 41.66670 41.66670 41.66670 13.99722 14.78622 15.90423
151 43.10350 43.10350 43.10350 14.96485 15.72813 17.07394
152 44.57360 44.57360 44.57360 16.18946 17.02982 18.72926
153 46.07840 46.07840 46.07840 16.99923 17.90866 19.64827
154 47.61910 47.61910 47.61910 18.43201 19.35307 21.04052
155 49.19680 49.19680 49.19680 19.69634 20.72315 22.47401
156 50.81300 50.81300 50.81300 21.44606 22.63249 24.45183
157 52.46910 52.46910 52.46910 22.78053 23.91799 26.29025
158 54.16670 54.16670 54.16670 24.29288 25.48332 27.85943
159 55.90720 55.90720 55.90720 26.23229 27.58185 29.99500
160 57.69230 57.69230 57.69230 27.71102 29.24674 32.04854
161 59.52380 59.52380 59.52380 29.82651 31.52879 34.24430
162 61.40350 61.40350 61.40350 31.79121 33.53152 36.83448
163 63.33330 63.33330 63.33330 33.47986 35.29853 38.58088
164 65.31530 65.31530 65.31530 36.59023 38.43610 42.14930
165 67.35160 67.35160 67.35160 39.36761 41.28845 45.25380
166 69.44440 69.44440 69.44440 41.92000 44.08586 47.94624
167 71.59620 71.59620 71.59620 45.01550 47.58117 51.82725
168 73.80950 73.80950 73.80950 47.69364 50.13780 54.50123
169 76.08700 76.08700 76.08700 51.45806 54.20364 59.32403
170 78.43140 78.43140 78.43140 54.68936 57.63762 63.42518
171 80.84580 80.84580 80.84580 58.62495 61.91772 67.52978
172 83.33330 83.33330 83.33330 62.50291 65.79007 71.62841
173 85.89740 85.89740 85.89740 66.85411 70.60289 77.19735
174 88.54170 88.54170 88.54170 71.94052 75.79121 82.76135
175 91.26980 91.26980 91.26980 76.85403 80.69950 88.61564
176 94.08600 94.08600 94.08600 82.36966 86.46865 95.05988
177 96.99450 96.99450 96.99450 87.89418 92.53060 101.5089
178 0.000000 54.44540 80.30680 20.30267 25.80970 57.69108
179 0.000000 69.26020 84.90120 27.70516 37.51304 66.71556
180 0.000000 76.27670 100.0000 38.67795 52.31747 99.24713
181 26.80640 87.84050 100.0000 47.25201 64.03923 102.2365
182 82.45790 0.000000 19.86110 27.49489 16.64123 6.772988
183 100.0000 27.51350 20.83130 45.75970 29.64138 9.194860
184 100.0000 67.66430 21.62630 57.74882 49.92587 14.62178
185 100.0000 76.90080 39.84440 63.82838 58.94884 24.38267
186 26.32900 80.38140 0.000000 22.48730 35.68046 9.593194
187 54.99780 81.08150 55.19660 36.97541 46.54188 33.73330
188 16.79760 0.000000 43.99740 4.469731 3.707733 14.47299
189 22.89340 0.000000 61.91900 8.573824 7.189834 30.47058
190 40.67880 0.000000 66.03720 13.46211 10.41473 35.53472
191 56.68330 0.000000 67.24990 19.90380 14.33633 37.95602
192 72.15110 0.000000 68.96480 28.34436 19.47528 41.08375
193 100.0000 0.000000 83.12270 55.27097 36.97760 63.65383
194 100.0000 47.41320 89.35840 64.58801 50.96298 77.77904
195 26.74020 64.51820 0.000000 14.75810 22.59402 6.457747
196 63.89050 67.63690 0.000000 29.14272 32.47673 8.639439
197 78.84990 83.53060 0.000000 46.49963 51.77780 12.91806
198 78.08490 85.36080 20.21240 47.99358 54.22535 16.22825
199 0.000000 0.000000 8.333300 0.689990 0.700194 1.249274
200 14.47520 0.000000 11.52210 1.589960 1.263403 1.801333
201 16.92690 10.21550 21.05940 2.583786 2.346573 4.172793
202 24.74260 38.45890 74.57180 16.20574 17.54530 47.55026
203 33.68610 59.63410 78.59510 25.70293 30.99520 57.03025
204 88.80520 100.0000 90.88620 79.47189 87.80278 89.57200
205 100.0000 0.000000 0.000000 42.68047 25.37011 5.194418
206 100.0000 27.08430 0.000000 45.02985 28.93114 6.133575
207 100.0000 42.64490 34.01570 50.03167 35.97498 15.54585
208 26.75410 15.13210 0.000000 3.623258 3.170549 1.421842
209 31.48830 22.20420 23.79990 6.070753 5.640101 5.774425
210 54.51710 29.27090 27.12440 14.80701 11.93055 8.333828
211 48.52270 52.35430 0.000000 16.67414 18.80630 5.403351
212 49.15560 68.40420 0.000000 22.93646 29.30111 8.026518
213 49.76340 76.77060 24.01790 28.31572 37.58500 13.72245
214 52.19350 100.0000 71.49000 50.54712 67.73113 55.87923
215 53.81130 100.0000 82.14530 54.60734 71.49738 71.55272
216 27.69090 24.75880 43.64240 7.650985 7.504251 15.24027
217 72.07810 39.23750 53.76020 29.31047 23.70578 26.72981
218 18.94660 91.30960 14.10730 27.83546 45.74797 13.20375
219 0.000000 100.0000 86.42370 45.25091 66.56307 75.99813
220 0.000000 100.0000 100.0000 51.92035 74.46104 104.0943
221 33.07420 100.0000 100.0000 55.88837 76.86729 104.9510
222 63.77370 100.0000 100.0000 67.59795 83.78728 106.6423
223 39.93720 38.08310 0.000000 9.981280 10.57987 3.345066
224 64.14900 43.93330 22.97440 22.15678 19.71170 9.000325
225 78.07590 50.06900 38.75200 33.92873 28.99803 17.51184
226 63.62300 0.000000 17.34400 15.73953 9.696751 4.801882
227 76.15160 0.000000 51.10960 26.78436 17.22264 22.52660
228 0.000000 0.000000 1.938000 0.586001 0.614063 0.730692
229 0.000000 0.000000 3.968300 0.607322 0.632444 0.852231
230 0.000000 0.000000 6.097600 0.646183 0.665819 1.050988
231 0.000000 0.000000 0.000000 0.572511 0.602226 0.657184
232 31.46110 57.28090 15.22750 13.53690 19.01402 7.156057
233 31.61440 57.10030 37.81990 15.34968 20.64341 15.40670
234 36.18180 74.87890 61.52040 28.50801 38.57335 38.04776
235 60.35120 77.76430 69.77430 41.08026 48.19633 49.45729
236 39.70980 28.82340 54.11910 12.79009 11.70878 24.32524
237 50.28030 31.51750 65.73660 19.45264 16.92766 37.23471
238 75.56860 38.01380 87.54430 40.86905 33.79397 70.83696
239 76.12370 43.62820 100.0000 48.47426 43.54801 96.90351
240 0.000000 85.13900 57.87660 28.29861 43.81358 35.32486
241 40.51450 90.48400 75.41520 41.76994 56.98863 58.22876
242 18.52260 45.19880 47.65990 10.83175 14.14621 20.01832
243 25.17370 46.07080 58.38620 13.87856 16.73722 29.27496
244 44.72010 50.84960 74.54440 24.56533 26.35567 49.89987
245 57.15080 54.79310 74.16340 30.80030 31.46633 50.61662
246 24.46140 0.000000 79.76210 13.84792 12.13523 53.69847
247 43.28460 0.000000 100.0000 27.07046 24.74908 92.52976
248 71.11220 24.43180 100.0000 41.63626 35.21837 94.82170
249 0.000000 52.17380 42.72680 10.87389 16.30758 16.95208
250 0.000000 81.25860 43.18210 23.34603 37.78677 22.15107
251 0.000000 0.000000 100.0000 20.49426 20.79559 91.39452
252 23.27760 26.13510 100.0000 24.26323 25.30220 92.87434
253 88.66410 46.63130 100.0000 58.49221 50.42627 98.32762
254 100.0000 55.61710 100.0000 72.29257 61.59125 100.3506
255 65.99300 21.13520 0.000000 18.08708 12.35049 3.442073
256 72.94820 100.0000 0.000000 52.08685 65.16591 15.95028
257 86.02500 100.0000 0.000000 60.75116 70.22226 16.78675
258 85.39090 100.0000 26.64720 61.80682 71.60551 21.80371
259 29.90050 40.56570 0.000000 7.817097 9.844639 3.198362
260 81.18370 40.88440 0.000000 31.07713 23.68099 5.952970
261 100.0000 44.05320 0.000000 48.37891 34.71236 7.656558
262 100.0000 49.33530 21.76520 50.76920 38.12930 11.67008
263 100.0000 62.17410 35.27530 56.43844 46.89417 18.88658
264 53.53830 24.49210 0.000000 12.60697 9.543931 2.923188
265 61.57390 32.08630 60.73740 23.17856 18.89357 32.19386
266 71.55750 45.23400 75.98760 36.15990 31.43963 53.63618
267 100.0000 0.000000 39.35210 44.90581 27.30045 16.11749
268 100.0000 0.000000 53.26890 47.15260 29.25323 26.32790
269 100.0000 0.000000 66.50550 50.16308 32.03214 40.49216
270 100.0000 38.75630 78.68220 58.30786 42.91145 59.02952
271 100.0000 53.73360 77.98810 62.46693 50.11731 59.96405
272 100.0000 66.39390 88.31150 70.93112 62.10630 78.45396
273 48.41650 27.30690 36.35620 12.75486 10.63191 11.89099
274 68.00650 28.44790 44.74570 23.16530 17.35349 18.48803
275 69.89110 30.78170 58.16440 27.05781 20.72432 29.92788
276 100.0000 49.65080 58.63170 55.73123 42.56387 34.72215
277 43.24510 100.0000 0.000000 37.74913 56.67023 14.26482
278 58.91760 100.0000 0.000000 44.00841 60.43256 15.05331
279 69.29830 100.0000 25.89260 51.26747 65.39722 20.40412
280 83.37060 100.0000 45.50100 62.94191 72.95014 31.69494
281 88.14580 100.0000 62.17100 69.63567 77.99975 47.42520
282 100.0000 100.0000 74.34560 84.36161 87.82888 63.18633
283 63.07580 53.11750 21.62360 23.82236 23.54791 9.568619
284 88.72070 63.28270 34.51150 45.54145 40.64469 17.51786
285 100.0000 63.02870 73.18640 64.04604 54.16017 53.84173
286 3.968300 0.000000 0.000000 0.687469 0.672918 0.698416
287 6.097600 0.000000 0.000000 0.796300 0.739237 0.730874
288 8.333300 0.000000 0.000000 0.901078 0.803394 0.759184
289 10.68380 0.000000 0.000000 1.025890 0.879344 0.788561
290 41.32740 15.77420 0.000000 7.162450 5.325974 1.927653
291 41.38760 35.04890 16.58740 10.18444 10.04490 5.068372
292 72.05860 74.90230 35.74280 39.75861 43.70910 19.60791
293 72.94470 83.65180 66.63730 50.73757 57.09241 47.85417
294 65.96770 39.18120 0.000000 20.86498 17.27517 4.766101
295 82.11440 56.18250 0.000000 35.78431 31.40945 7.931604
296 100.0000 59.44130 0.000000 53.32572 43.19466 9.813462
297 0.000000 3.968300 0.000000 0.640338 0.738723 0.732887
298 0.000000 6.097600 0.000000 0.701038 0.848391 0.782679
299 49.15280 11.76890 14.59360 9.930153 6.695426 3.673334
300 68.62470 26.71020 25.97260 21.38030 15.35868 8.498593
301 100.0000 39.66430 45.73060 50.66543 35.86897 22.48719
302 100.0000 42.44980 66.47630 55.58381 40.94849 42.79343
303 40.80180 0.000000 25.55910 7.174136 4.769365 6.056524
304 55.08740 0.000000 53.49160 15.86966 10.91758 23.17253
305 68.55080 0.000000 56.34560 23.25452 15.47404 26.97664
306 24.69670 76.80030 35.38140 22.36344 34.29264 17.31858
307 42.59600 100.0000 59.72450 43.83046 62.58544 41.33740
308 72.43090 100.0000 77.87600 63.20654 75.87637 66.81722
309 15.51440 26.17690 9.019200 3.417852 4.443673 2.411484
310 26.58400 31.04140 10.24050 5.565831 6.444760 3.111734
311 28.46690 35.03590 22.74420 7.134775 8.335223 6.201237
312 54.54800 55.68120 23.02480 21.00590 22.91062 9.955931
313 55.86680 56.43220 46.42250 24.29341 26.04730 21.93773
314 26.73850 0.000000 100.0000 22.96475 22.26908 91.96619
315 41.73230 31.20830 100.0000 29.21343 29.04593 93.73858
316 52.60440 42.40090 89.01920 30.26525 28.98687 72.38009
317 69.28490 55.61070 100.0000 48.15971 47.39453 98.14235
318 0.000000 18.29900 47.89380 4.831548 5.148115 17.30472
319 16.80660 28.01460 62.15250 9.812220 10.28100 31.19278
320 17.73820 0.000000 31.30500 3.075267 2.453328 7.431737
321 40.77520 0.000000 36.84200 8.182409 5.646649 10.85812
322 43.07200 0.000000 52.24730 11.23939 8.126319 21.72675
323 83.96060 48.23470 84.65740 47.90446 40.55916 67.62720
324 86.61180 63.12010 100.0000 62.39398 58.89565 100.4567
325 59.49180 24.50280 48.07810 18.71964 14.19545 20.18561
326 77.53590 25.57920 68.53960 33.72359 24.57878 41.70969
327 100.0000 100.0000 100.0000 94.83102 99.71796 109.1246
328 44.61320 42.92490 31.03500 13.96483 14.67636 10.46467
329 60.39410 43.68750 41.43290 21.71430 19.78146 16.97829
330 60.74230 44.21740 58.06170 25.21313 23.05355 30.77681
331 75.42740 56.23610 53.80820 36.11228 33.13615 29.01021
332 84.34640 64.84180 70.35360 49.35662 45.86186 48.97432
333 39.77480 32.68550 45.11800 11.77445 11.29119 17.19444
334 45.40490 39.86270 56.07670 17.29704 17.00238 27.27505
335 46.75800 68.10410 67.52870 29.89570 36.14675 44.04407
336 64.61040 89.56420 91.23480 57.31855 67.97966 86.06955
337 72.18530 91.81660 100.0000 67.31883 78.26837 105.3845
338 0.000000 63.25240 100.0000 32.03029 40.91947 96.52614
339 26.56730 65.36700 100.0000 35.68384 44.34256 97.69718
340 36.52790 77.50690 100.0000 43.92145 55.95811 100.3975
341 58.25300 79.14630 100.0000 52.88086 62.24168 101.8278
342 58.67510 0.000000 100.0000 33.11078 28.32772 93.37456
343 73.71980 0.000000 100.0000 41.17569 33.06063 94.20779
344 87.71490 26.46590 100.0000 53.24416 42.31418 96.22513
345 0.000000 11.00890 17.50280 1.352183 1.594056 3.102799
346 0.000000 14.88700 32.74990 2.568181 2.850503 7.960940
347 0.000000 31.20010 44.30140 5.895172 7.485545 15.59199
348 0.000000 44.27610 47.05620 9.159976 12.86834 18.65972
349 100.0000 73.18270 0.000000 59.25184 53.27436 12.29550
350 100.0000 84.89340 26.53270 66.70675 64.82991 19.65958
351 100.0000 89.84410 51.68380 72.83217 72.72693 35.77268
352 100.0000 89.75610 71.46350 77.37454 77.03454 57.07582
353 100.0000 89.66850 100.0000 88.94056 89.81852 107.0019
354 40.44990 0.000000 80.67840 17.71984 14.58518 56.05173
355 56.99110 0.000000 82.85950 24.61356 18.92061 60.01878
356 71.85030 0.000000 82.91380 32.20502 23.42739 60.85544
357 87.75070 0.000000 100.0000 50.87035 38.77648 95.32495
358 100.0000 0.000000 100.0000 62.62025 45.67971 96.13829
359 13.15790 0.000000 0.000000 1.281615 1.032285 0.840191
360 15.76580 0.000000 0.000000 1.498460 1.162234 0.879277
361 18.51850 0.000000 0.000000 1.781624 1.331013 0.926054
362 21.73230 52.53290 45.87860 13.00203 17.68426 19.52047
363 65.74310 68.05030 78.95030 42.01839 44.53244 60.76764
364 88.96250 80.04490 100.0000 72.69097 74.12250 104.0633
365 0.000000 14.56270 11.67980 1.323998 1.781080 2.039263
366 0.000000 25.33790 19.60200 2.748550 4.005357 4.164593
367 0.000000 24.70440 84.57420 14.89549 15.26995 60.98310
368 0.000000 29.72890 100.0000 22.71459 24.85387 92.30579
369 0.000000 49.29970 100.0000 27.37126 32.83799 94.41517
370 0.000000 34.46570 32.98740 4.968736 7.103855 9.107827
371 20.74150 34.29990 35.90310 6.949179 8.414762 11.37562
372 24.44500 43.10290 37.77730 9.665611 12.33824 13.24180
373 0.000000 42.04950 29.38960 6.405029 9.835390 8.641711
374 0.000000 59.73500 33.60380 12.30799 19.71271 12.79193
375 0.000000 68.75780 48.96180 18.08778 28.03921 23.84675
376 20.41300 70.99600 50.11660 20.88985 30.87430 25.99967
377 26.71620 100.0000 50.10140 37.97891 58.42900 32.24807
378 20.52140 48.18910 0.000000 8.331169 12.52285 3.920766
379 36.12610 55.40680 0.000000 13.39116 17.79837 5.237890
380 42.49500 65.96070 28.85070 20.71590 27.32114 13.00224
381 40.85450 67.52730 41.73930 22.24658 29.35242 19.53503
382 48.36290 100.0000 45.63090 43.08108 61.24679 29.41179
383 60.94760 100.0000 61.67960 51.71873 67.36679 44.54199
384 76.05470 100.0000 62.77390 61.05362 72.94606 46.97632
385 0.000000 28.23820 12.88060 2.824208 4.416888 2.877046
386 0.000000 43.46800 18.44440 6.100849 9.908094 5.467503
387 30.39890 48.48110 19.07130 10.66038 14.17001 6.734455
388 42.37920 48.28410 51.64760 17.48195 19.30581 24.31910
389 75.43410 74.25990 58.64140 44.76023 47.22486 36.97035
390 0.000000 57.82000 18.56000 10.40807 17.37867 7.379722
391 0.000000 71.42570 27.07090 16.73555 27.79184 12.36416
392 34.97840 79.07900 72.41860 33.26026 44.74318 52.18499
393 45.75740 79.57950 89.80470 42.48791 52.86546 79.90310
394 72.69770 100.0000 90.38850 67.59457 80.51916 86.70778
395 84.88300 100.0000 100.0000 80.71614 91.45627 108.0323
396 47.55220 68.94720 60.24460 28.78571 35.06581 35.95003
397 80.17930 70.54250 75.49010 50.37284 50.04390 56.44649
398 86.87500 100.0000 77.94120 73.22453 81.81141 67.93312
399 0.000000 100.0000 41.40400 34.03859 55.62283 25.15156
400 0.000000 100.0000 72.85680 40.62382 61.86488 55.62925
401 29.41540 100.0000 77.12360 45.06697 65.12283 63.11342
402 0.000000 100.0000 57.26220 36.65815 58.11325 37.61733
403 26.28620 100.0000 64.62510 40.90797 61.22194 46.13508
404 0.000000 8.333300 0.000000 0.768353 0.973790 0.831069
405 14.47250 11.62790 0.000000 1.766507 1.772037 1.064134
406 14.50620 19.93940 0.000000 2.438184 2.967108 1.398829
407 27.10590 25.79920 0.000000 4.760229 5.107283 1.954055
408 40.20360 27.01990 0.000000 8.017689 7.186774 2.442590
409 100.0000 86.79250 0.000000 66.08096 64.83929 14.99486
410 100.0000 100.0000 60.25100 80.49808 84.14629 46.07551
411 0.000000 83.33330 0.000000 21.41694 36.61362 9.777814
412 0.000000 91.26980 0.000000 25.82989 44.05448 11.45172
413 0.000000 100.0000 0.000000 30.99273 52.63543 13.30687
414 24.96440 100.0000 0.000000 33.23426 53.94222 13.65233
415 53.59300 100.0000 28.92090 43.33828 60.73442 20.63007
416 0.636100 0.636100 0.636100 0.593345 0.625240 0.680413
417 1.282100 1.282100 1.282100 0.610989 0.640779 0.705440
418 27.33980 0.000000 14.94340 3.416056 2.379268 2.655071
419 30.74290 0.000000 39.17610 5.896519 4.373753 11.95333
420 30.35780 0.000000 50.95800 7.469798 5.814400 19.99918
421 32.00760 15.73050 54.35490 9.395041 7.982754 23.70414
422 51.12680 43.62240 69.37850 23.28319 22.55468 42.71053
423 67.07370 57.11430 75.75210 37.00883 36.09296 53.83849
424 91.26390 59.96400 74.88170 54.90636 47.81154 54.99413
425 100.0000 75.27070 80.08790 72.09377 66.12921 66.51752
426 100.0000 90.26660 86.91640 82.67314 82.40516 80.95425
427 100.0000 100.0000 88.09660 89.25334 92.78046 85.41317
428 44.09450 80.47600 0.000000 26.89924 38.17836 10.17757
429 43.87220 92.29050 13.31050 33.94271 49.92933 14.07823
430 88.92730 91.89490 82.87890 71.56014 76.23756 73.41953
431 89.48190 92.01220 100.0000 80.08275 86.18880 106.7841
432 0.000000 80.43470 67.85530 27.99609 41.75769 44.64689
433 21.67480 86.58710 80.03230 36.96009 52.21654 64.18994
434 85.65330 0.000000 65.30810 36.03808 23.67485 37.79104
435 86.09630 12.12760 73.35990 39.74298 27.09565 47.75226
436 100.0000 18.03400 76.24720 54.07880 36.39523 53.61076
437 6.146800 81.53570 34.47530 22.87301 37.37715 17.40386
438 15.14650 91.41460 41.94720 29.86609 47.65241 24.03673
439 16.62800 32.55000 0.000000 4.207339 5.900342 2.187359
440 56.01840 35.70000 8.323700 15.45433 13.19527 4.433546
441 78.20830 38.75390 41.14680 31.02572 23.91055 17.66612
442 63.85320 14.62440 13.85560 16.63128 10.86185 4.447525
443 65.69370 32.12350 35.09740 21.28588 16.43359 12.35882
444 68.43610 50.96890 68.94330 34.03024 31.32311 44.24955
445 79.83630 61.35170 80.37070 48.27506 45.09520 63.02018
446 32.91950 34.20330 44.02480 10.18572 10.63143 16.39351
447 38.18960 42.77270 53.70520 15.08077 16.31036 25.14193
448 38.49010 49.18860 63.11070 18.73798 21.00657 35.04885
449 58.68260 68.11530 65.60150 34.52733 38.71099 42.23145
450 81.06040 80.56330 72.98100 56.07380 58.91022 55.88031
451 93.24270 82.89120 75.13310 67.50906 67.17694 60.17359
452 74.50140 55.32510 29.18260 32.03412 29.33714 13.04670
453 77.35650 59.76480 42.10580 36.79832 34.48799 20.73000
454 89.60010 71.87530 46.21450 51.96658 49.52934 26.99965
455 48.64290 45.28220 24.24200 15.52135 16.11527 8.587041
456 49.48580 89.19070 50.83100 38.14922 51.60512 31.34903
457 53.95620 90.19250 70.85350 45.29945 58.20421 53.31610
458 16.97990 78.05910 61.32210 26.21650 38.61407 37.50955
459 16.50840 89.93360 73.68810 36.15554 52.97778 54.94818
460 37.92620 92.88340 85.69210 46.15402 62.58608 75.62514
461 12.57250 8.910700 4.774100 1.460947 1.435602 1.218499
462 21.78700 13.20410 15.67590 3.115815 2.779701 2.924218
463 23.63170 13.49440 44.04550 5.819281 5.080565 14.90678
464 51.31270 22.52420 76.92770 21.95195 18.15640 51.52785
465 51.62790 55.06940 90.73920 34.31604 35.96894 77.11303
466 17.66050 14.34060 74.21890 11.63385 10.77565 45.14160
467 18.71240 14.06720 88.42750 16.72528 15.79304 67.98026
468 27.55000 31.04210 88.61620 20.10865 20.13941 69.75564
469 15.91530 38.76700 89.03320 20.07670 21.96886 70.66391
470 15.58080 87.64670 91.75310 41.41464 57.55987 84.09127
471 50.89810 100.0000 91.89340 57.41581 74.81220 88.22931
472 13.34190 14.66780 61.61520 7.960198 7.462681 30.02526
473 36.23740 14.83530 89.51710 20.51817 18.37184 70.88906
474 59.87110 40.69860 100.0000 38.56688 36.78671 95.77203
475 8.807000 22.90850 12.08990 2.453170 3.386389 2.495718
476 25.86960 72.56890 10.52920 18.66443 29.16581 8.872281
477 33.65690 74.11260 45.63920 24.09952 34.31266 23.36308
478 34.31040 87.39970 48.26230 32.08633 47.20999 28.35653
479 62.16720 90.80820 54.38540 45.90093 57.88067 35.86029
480 56.68260 89.75870 15.14940 38.00244 51.03710 14.67622
481 64.73590 91.03540 33.49300 43.93398 55.61359 21.09299
482 62.91450 82.64130 0.000000 36.19705 44.97411 11.64050
483 74.78370 88.31500 34.87060 48.32230 56.53482 21.98010
484 17.08460 43.84280 11.80900 7.099157 10.59078 4.406524
485 37.22880 50.55800 12.34890 12.63448 15.99134 5.765191
486 53.70760 50.13500 61.89820 24.45825 24.70991 35.09630
487 62.79140 53.87560 61.74770 29.85487 29.20774 35.74284
488 58.04400 46.70370 51.51890 23.07492 22.10365 24.60273
489 57.73680 60.98510 84.61270 36.83667 39.03837 68.06327
490 69.17270 60.68280 87.92910 43.94650 43.67608 74.46412
491 11.91750 8.362000 30.46650 2.646109 2.443184 7.271067
492 12.12500 19.97010 31.34390 3.596160 4.037660 7.886606
493 11.35840 42.47250 37.95030 7.961707 11.17762 12.92433
494 11.95910 61.98330 49.29160 15.86908 23.41858 23.39749
495 11.12180 62.65260 83.72330 25.11491 32.55351 64.33305
496 6.136600 92.12340 87.01850 41.18884 59.42605 75.94033
497 87.39230 47.81620 21.29500 38.40722 30.39849 10.43457
498 100.0000 56.01340 46.73440 55.52783 44.16789 24.99788
499 0.000000 0.000000 0.000000 0.572541 0.601647 0.658293
500 0.000000 22.50230 28.11810 2.974066 3.868496 6.756482
501 72.28570 33.23020 72.65770 32.57343 25.67319 47.32751
502 80.43720 54.37580 72.40300 43.57418 38.53920 50.45850
503 24.55000 12.56760 22.70790 3.873412 3.279193 4.845957
504 23.78400 33.13980 28.98670 6.551808 7.759525 8.062024
505 29.59190 41.81440 32.50180 9.668806 11.88401 10.53106
506 38.40050 48.85370 42.22260 14.94777 17.56480 17.24286
507 52.88860 17.83660 7.940400 11.81031 8.301136 3.096226
508 52.55110 16.81200 34.48340 13.04240 9.320005 10.42289
509 64.05430 15.88170 62.77370 22.97121 16.59439 33.72884
510 63.69920 18.11990 87.46470 30.36597 24.13129 68.49644
511 86.83800 0.000000 82.38210 42.34745 29.33186 61.38423
512 90.31610 32.37180 81.80990 48.25188 35.94310 62.57441
513 90.13780 69.55320 83.45790 60.56271 56.76807 70.04476
514 44.70160 48.88710 39.56950 16.60941 18.42723 15.66333
515 45.72890 58.14920 42.31360 20.44709 24.26130 18.92223
516 56.51540 65.57330 53.97700 29.57615 33.40067 29.82947
517 64.08590 89.24340 70.00890 49.36513 60.17163 52.76288
518 78.38920 92.98670 78.71280 62.86036 71.38230 67.03935
519 21.19430 83.68530 24.52170 24.67276 39.52911 14.48847
520 37.15580 90.61580 33.75670 32.49499 48.57091 19.83726
521 75.18800 24.51240 36.89040 26.07768 18.12595 13.68039
522 79.98070 30.99130 48.07830 31.64224 22.82119 22.05996
523 87.60650 33.18820 68.66250 42.20762 30.88941 43.07616
524 87.64520 37.04560 90.44270 50.41930 39.84024 77.22415
525 61.16360 66.67900 47.72200 31.31040 34.88174 25.19209
526 72.01860 74.60280 49.41170 41.51634 45.06738 28.58105
527 89.55920 81.06170 56.60370 58.60615 59.29843 37.38054
528 66.07670 55.12790 0.000000 25.31904 24.88129 6.728031
529 83.33890 72.51740 0.000000 44.14319 43.88274 10.94066
530 85.27650 91.76780 49.17890 59.66248 66.02912 32.73233
531 0.000000 51.97620 61.20260 14.14298 19.27198 32.29814
532 0.000000 64.15500 71.22230 21.14647 29.38679 46.23387
533 24.57010 69.67280 91.69640 33.17244 42.41610 80.74703
534 10.19850 31.47760 37.68020 5.563026 7.072160 11.83433
535 31.52500 38.50480 40.47050 10.29508 11.66304 14.52705
536 47.12880 41.79970 50.06090 17.22248 17.08786 22.64350
537 58.67020 69.29960 74.36900 37.47091 41.87419 53.78550
538 70.46750 77.15430 81.19820 50.16555 54.62331 66.65955
539 81.69050 80.17920 91.06710 62.64660 65.36061 84.77466
540 96.24130 89.60330 90.37350 79.39293 80.77369 86.23927
541 100.0000 100.0000 100.0000 95.01705 99.88503 109.1246
542 17.90100 88.27160 51.83220 30.14722 46.58175 30.84935
543 15.29990 92.67400 66.16220 35.28981 53.28347 46.33183
544 31.25940 26.14260 73.88460 15.02515 14.22348 45.68074
545 44.17310 27.36660 83.11010 21.92139 19.71616 60.95036
546 62.89370 34.65110 90.68840 33.65177 29.28563 75.25681
547 69.38480 49.54320 89.71580 41.26531 37.97402 76.45575
548 10.08070 15.49500 6.443200 1.775756 2.154555 1.547537
549 19.26590 20.61930 13.42580 3.306918 3.639919 2.798858
550 64.60300 30.13840 14.37750 19.07412 14.39503 5.501022
551 78.37280 30.37070 16.16250 27.21226 19.21098 6.669709
552 80.30410 58.91760 18.94030 36.40259 33.22650 10.89052
553 88.23250 70.74740 27.63900 47.84468 45.67224 16.18376
554 73.89110 64.75190 12.48220 33.91927 34.09085 9.985300
555 90.62120 70.15530 11.62170 48.80778 45.85147 12.14157
556 92.05370 83.15760 13.37080 57.12835 58.05470 15.15852
557 71.69200 34.01760 6.479900 23.41056 17.61644 5.078137
558 74.33340 44.73400 18.72810 28.15782 23.31392 8.555319
559 12.91630 15.45410 39.66220 4.089799 4.058967 11.86855
560 15.35710 35.35000 56.17210 9.601871 11.18353 25.73778
561 9.689900 41.99480 53.12920 9.976309 12.90998 23.36270
562 10.23080 55.20280 54.99660 14.30445 19.99736 27.14850
563 37.38850 61.25710 70.34400 24.61957 29.97436 45.62962
564 46.63700 74.61500 78.36090 36.48706 44.67346 60.56226
565 59.24220 79.32660 89.68910 48.49756 56.41099 81.04015
566 74.64710 81.01860 100.0000 62.94755 69.23491 103.2531
567 74.27180 17.16390 59.25180 28.21103 19.54928 30.47705
568 74.25680 52.25980 59.67850 35.56364 31.78225 34.08593
569 73.56780 59.54120 67.60190 39.77291 38.02987 44.36832
570 12.56240 22.42160 18.72440 2.994742 3.728158 4.010794
571 19.10010 29.12330 19.08350 4.580782 5.645390 4.527516
572 60.82350 49.93970 31.18050 22.57619 21.88186 12.36589
573 69.23530 58.20130 47.55740 32.39176 31.52514 23.86870
574 88.04400 62.08820 50.34230 47.00196 41.86841 28.10291
575 1.938000 0.000000 0.000000 0.624373 0.634624 0.678472
576 30.57820 9.458400 22.25060 4.671871 3.562028 4.768343
577 39.13590 11.25240 30.10290 7.570777 5.565598 7.931238
578 48.25790 10.63650 37.54090 11.26669 7.886194 12.01228
579 61.70010 45.84400 73.07790 29.65629 27.32276 48.52987
580 77.65080 55.76390 87.90420 47.56033 43.50409 74.40596
581 91.80830 61.50090 93.35200 62.78178 56.11829 86.37138
582 55.83030 24.63210 18.34310 14.04411 10.62893 5.486442
583 52.69660 40.39140 0.000000 14.94688 14.07117 4.145036
584 56.98710 52.63750 9.134500 20.29497 21.08652 6.534555
585 60.22960 67.30970 36.48350 29.49153 33.49187 17.64685
586 68.69930 80.77380 45.74620 42.30183 49.04988 27.07110
587 82.07190 80.82550 48.78600 51.15019 54.48846 30.22530
588 86.28860 83.38600 64.94120 59.32695 62.06257 46.85003
589 68.31160 72.94750 63.57070 41.27127 45.00163 41.34599
590 72.74370 83.69910 77.64480 53.69353 60.19677 62.89872
591 73.92630 92.24180 89.52830 63.79071 73.38401 84.01494
592 29.68360 82.24050 55.52170 29.31293 42.61572 33.19729
593 37.36230 92.47970 66.94500 39.56236 55.92636 48.16668
594 68.51090 94.69740 66.16300 54.20056 65.92388 49.36630
595 15.08880 34.09840 11.81370 4.581993 6.542967 3.348753
596 37.11610 41.88870 22.71370 10.80643 12.35096 7.242722
597 54.74320 75.21100 38.67770 31.16541 38.85221 20.36564
598 66.35200 79.09320 54.95080 41.59130 48.26420 34.09371
599 10.26490 38.06020 18.79050 5.355475 8.040744 5.163873
600 24.06610 40.63440 23.62840 7.795527 10.28307 6.879904
601 33.45440 55.05520 45.17720 16.06762 20.52290 19.64443
602 54.02090 71.65240 46.96170 30.29082 36.92084 25.04767
603 20.12900 62.91780 69.89290 21.76566 28.86299 44.72571
604 30.49950 70.57570 81.99030 30.64747 39.49830 64.07278
605 35.48390 80.47510 82.70500 37.33875 49.20841 67.64178
606 55.21450 89.47970 83.72510 49.76978 62.11516 71.76140
607 37.82460 12.19450 9.201200 6.019793 4.395458 2.323557
608 51.54750 17.48580 26.13170 12.09592 8.709676 7.194801
609 52.55790 0.000000 20.24860 11.08552 6.988134 4.952799
610 62.12520 13.17470 27.72800 16.36695 10.82273 8.237600
611 63.23490 33.74120 74.85470 27.98627 23.29568 49.58039
612 50.81430 9.706200 70.59190 18.75130 14.31205 42.04655
613 51.50570 15.89510 87.73580 25.20108 21.00597 68.81526
614 53.58660 21.56220 100.0000 32.29586 29.25109 93.69489
615 0.000000 0.000000 0.000000 0.572523 0.602063 0.658208
616 12.38590 0.000000 18.98330 1.701107 1.410271 3.355515
617 20.26040 16.95160 30.28330 4.070182 3.912507 7.536982
618 20.73750 24.85740 30.64890 5.060517 5.540670 8.149833
619 19.48610 27.97610 41.20050 6.503174 7.184527 13.90949
620 21.90620 37.75370 46.81630 9.270373 11.02870 18.19585
621 30.03400 48.99950 69.33580 18.38130 21.40839 42.43559
622 50.59640 68.35610 91.76410 39.87751 45.57173 81.57455
623 89.79570 71.85560 92.71450 65.25814 62.63199 86.73531
624 73.47190 12.90700 27.01890 22.73178 14.54352 8.622149
625 86.01900 27.98020 26.77020 32.88225 22.30490 10.06046
626 87.58130 30.28810 38.05910 35.87126 24.77736 15.50261
627 87.92380 18.71380 63.07640 38.85358 26.26167 35.56104
628 86.59660 15.10820 90.39830 46.49545 34.02073 75.72463
629 75.27380 22.73330 91.82100 39.76689 31.14527 77.53331
630 29.67940 34.23370 53.13160 10.93880 11.52177 23.12535
631 31.75770 39.32100 65.70850 15.24683 16.26763 37.09953
632 50.52850 80.32470 71.17080 38.67671 48.51436 51.13792
633 62.08080 80.11940 79.55520 46.15863 53.66025 64.36586
634 11.29640 34.11430 24.90400 4.954152 6.966328 6.579485
635 67.26660 37.64760 27.72300 22.91208 18.46382 10.14922
636 82.44970 40.44600 31.08870 33.09621 25.21679 12.47445
637 90.28570 47.27000 46.11540 43.02097 33.74354 23.05412
638 7.007800 7.335700 14.29780 1.300357 1.340433 2.274129
639 9.737400 12.06070 23.30120 2.171522 2.272835 4.721199
640 18.60190 11.72890 51.81990 6.300131 5.633959 20.73655
641 33.46330 10.45960 69.16520 12.71027 10.60841 39.07365
642 41.20490 23.33830 69.51240 16.04997 13.97772 40.48320
643 55.37720 37.83990 78.79190 26.76299 24.09942 55.87036
644 63.36980 92.43720 79.36550 53.74113 65.64895 66.49778
645 83.55660 92.49240 90.93940 71.15878 78.02359 87.78073
646 28.19760 21.65160 15.36550 4.760330 4.597064 3.413129
647 52.24520 33.14120 17.24550 13.74355 11.81342 5.579406
648 66.44080 74.70780 15.77620 34.76133 40.24257 12.10534
649 78.83360 76.05700 13.12810 42.77171 45.55872 12.60737
650 93.54180 81.55980 38.67900 59.68880 59.31905 24.29068
651 100.0000 82.50360 58.95170 69.91463 66.73121 40.53962
652 84.51360 50.09220 8.183200 36.29702 29.70712 7.942986
653 89.50730 53.40580 36.05020 43.09182 35.48097 17.32264
654 87.84030 54.07930 63.91020 46.51718 39.27577 39.84411
655 89.24020 67.23480 65.45110 53.85079 49.55556 44.22970
656 23.04200 22.78100 8.732900 3.909824 4.234611 2.284818
657 34.09620 25.75000 8.629800 6.416899 6.154662 2.764387
658 49.83510 40.43330 13.43950 14.10482 13.71384 5.318661
659 48.89040 64.21330 22.35030 22.11818 27.33546 10.83813
660 68.32510 64.60280 25.56500 31.54006 32.96520 13.03420
661 82.23890 77.98000 29.92710 47.32066 49.48237 18.15160
662 43.93250 51.87890 24.21260 15.69198 18.43071 9.222980
663 48.36990 58.41850 53.03460 23.26117 26.67541 27.01403
664 49.61940 59.33640 62.36570 26.02600 29.22977 36.73228
665 49.76880 63.56820 76.69750 31.72807 35.85425 56.14723
666 65.10810 71.34980 88.88540 46.75785 50.75601 78.04825
667 74.83760 83.97510 92.51190 60.61233 66.86058 88.04681
668 31.14230 64.67380 47.19690 19.26229 26.55402 22.51107
669 46.15090 66.14300 50.79550 25.19837 31.20794 26.58504
670 46.89500 77.93200 59.19180 32.82826 42.44703 36.52681
671 60.90660 77.47110 61.82010 39.30553 46.54501 40.44109
672 17.28550 44.32320 30.42970 8.416455 11.90419 9.826453
673 36.76460 48.23810 32.10160 13.17299 15.99440 11.40660
674 51.36650 53.28480 35.06710 20.02031 21.85302 14.00273
675 90.47170 89.27480 40.60860 61.45538 65.20168 26.95224
676 25.97190 38.72260 11.27960 6.979238 9.045884 3.902713
677 27.59910 51.86060 81.13070 22.48584 26.20748 59.58905
678 40.11700 58.91640 87.79660 30.53173 34.77981 72.47336
679 29.29310 23.85120 33.28440 6.488203 6.298745 9.238170
680 38.37510 30.05320 34.74110 9.707872 9.272507 10.79849
681 47.35020 36.34360 39.06630 14.52730 13.57896 14.38914
682 75.96250 14.19040 12.76830 23.85737 15.04845 4.979708
683 76.70840 13.36770 42.54910 26.64453 17.33666 16.90919
684 89.85050 22.10990 54.41360 38.86090 26.03053 27.44966
685 100.0000 24.67350 65.95700 52.03054 35.01534 40.33270
686 46.24400 11.77860 48.34920 12.11679 8.911649 19.00715
687 49.28450 27.19400 53.62270 15.89049 13.19446 24.29271
688 55.36160 39.24400 61.20220 22.20924 20.00459 33.01706
689 81.43480 43.62590 66.22630 39.58719 31.82715 41.06931
690 85.38450 43.85070 76.04590 45.10887 36.30802 54.55481
691 91.04080 56.89090 84.22200 56.41678 48.50601 69.09228
692 0.000000 0.000000 0.000000 0.572774 0.602121 0.657700
693 23.50950 8.128400 28.19780 3.846885 3.112985 6.635283
694 35.74840 21.78350 42.80550 8.922616 7.795010 14.99749
695 73.04610 92.37460 51.67010 52.28528 62.24362 34.37991
696 33.20710 100.0000 21.84070 36.07545 56.39075 17.32305
697 67.70730 100.0000 46.52130 52.63801 67.04197 31.36758
698 8.291900 49.76250 84.91760 20.86723 25.08869 65.14963
699 22.01150 55.58870 91.94490 26.87478 32.11565 78.03913
700 7.295000 23.91080 42.40440 4.967417 5.699834 14.04639
701 31.16040 48.32090 48.92250 13.99205 17.13508 21.56341
702 39.27120 59.41650 55.68700 21.12797 25.99323 29.24053
703 50.63300 89.60430 61.13460 40.98455 54.45426 41.36233
704 80.25700 90.69420 62.24160 58.23613 65.36471 44.92512
705 84.73240 90.66040 71.83210 64.01814 69.68645 56.66203
706 22.78910 49.73630 27.28230 10.24052 14.50101 9.340273
707 38.37300 56.89010 30.25660 16.02893 20.60516 11.86534
708 49.46640 60.80860 35.43140 22.00007 26.03143 15.31428
709 67.06670 64.29790 54.78630 34.82794 36.16406 31.13029
710 73.26980 64.68510 63.25320 40.11229 39.86666 39.52862
711 81.10170 67.37780 57.33910 45.49778 43.98858 34.86647
712 81.64810 73.66030 66.45770 51.03235 51.35879 45.90554
713 42.26240 24.20530 10.61860 8.565259 7.222761 3.244042
714 43.11020 24.84210 20.94620 9.412566 7.921668 5.452184
715 51.43910 33.93820 33.65660 14.91466 13.05699 11.16974
716 71.26330 44.27110 45.92120 29.05006 24.63386 21.00514
717 82.25920 44.26210 53.09510 37.25608 29.80746 27.19380
718 39.74140 0.000000 12.87990 6.192724 4.007852 2.681793
719 42.40530 10.31680 22.04260 7.797569 5.443292 5.063357
720 47.80280 32.88350 46.29230 14.76400 13.14992 18.71430
721 57.28670 34.90290 49.34510 19.66195 16.62946 21.66047
722 23.68570 12.31950 7.737900 3.029800 2.612994 1.775810
723 32.97740 18.42930 11.62800 5.418618 4.617867 2.782016
724 40.21310 21.41220 26.27870 8.372032 6.903121 6.819929
725 58.13370 29.80780 37.93760 17.39181 13.82100 13.47970
726 63.79410 54.60780 52.81880 28.62704 28.14344 27.22412
727 10.51190 18.31370 22.20750 2.622764 3.085035 4.659803
728 11.01780 28.02530 27.37960 4.131278 5.360926 6.917155
729 12.95820 43.27170 70.80770 14.74007 17.43723 43.21062
730 14.22130 53.68370 70.50010 17.96987 23.02373 44.15434
731 74.40500 67.46120 78.64990 46.87674 47.00867 61.31964
732 77.92870 70.17690 89.95040 54.71122 55.04979 80.33755
733 13.36190 52.04020 20.37720 9.473187 14.83169 7.188859
734 13.21980 54.33070 36.27050 11.50492 17.24879 13.66271
735 13.31340 72.99050 42.04290 19.89354 31.11654 20.20009
736 35.18630 37.83640 10.33260 8.672807 9.759791 3.965673
737 43.39740 46.49490 10.36610 13.48832 15.21271 5.335711
738 45.29490 56.83340 8.736400 17.09609 20.80461 6.516002
739 57.56650 63.24860 14.20370 24.50470 27.89418 8.964491
740 57.11880 75.84260 13.06790 30.45802 37.90925 11.15631
741 88.88600 92.67200 10.60720 59.34202 64.88853 16.38329
742 90.00030 93.03540 29.83390 61.79411 67.15184 21.88108
743 28.26910 62.79530 28.81620 15.87847 23.09143 11.82444
744 28.79000 63.17190 55.97260 19.75456 26.59447 29.75033
745 28.45540 67.41040 66.50970 24.10286 32.16624 42.05843
746 40.76370 70.15060 88.35640 35.83271 43.54435 75.17069
747 17.70550 24.76790 50.22310 7.209092 7.551036 20.09089
748 28.90980 24.69350 60.31990 10.85666 10.33634 29.67827
749 42.85850 38.44200 74.61220 20.52443 20.08725 48.30457
750 59.49310 52.29790 87.60610 35.35971 35.05805 71.23480
751 16.43120 62.95050 32.88090 14.45499 22.36736 13.17062
752 14.99640 71.43410 64.34600 23.48428 33.67447 39.37779
753 15.55030 73.69760 74.45210 27.45512 38.16585 52.61134
754 17.59220 77.00700 89.13450 34.46384 46.39042 76.70119
755 23.24880 54.27500 59.15350 16.22417 21.00536 31.18974
756 36.26370 54.48060 59.57130 19.22660 23.02103 32.17522
757 90.00360 14.19420 12.66770 34.03066 20.99581 5.921458
758 90.76700 12.72920 28.23080 35.13525 21.79747 10.30235
759 100.0000 22.30410 37.28660 46.46329 29.70121 15.60472
760 100.0000 21.39710 89.25420 59.33998 41.90766 75.36837
761 26.97040 0.000000 25.29350 3.934963 2.841091 5.445365
762 26.81810 10.86510 37.43190 5.325602 4.390281 10.85472
763 36.72210 10.72710 38.38320 7.621085 5.741410 11.76461
764 38.78840 12.44300 50.39240 10.04876 7.837168 20.18805
765 44.02590 15.85100 61.16090 14.03193 11.19287 30.73263
766 54.83790 19.70750 63.26600 19.16635 14.75114 33.32562
767 55.83440 14.46720 50.37390 16.33795 11.72898 21.10500
768 77.82770 24.74140 54.33290 30.48678 21.53843 26.76120
769 86.47880 55.21130 54.28110 43.90778 37.35912 30.13586
770 92.27310 74.96460 61.18250 58.96566 56.35541 41.16190
771 91.91230 91.23860 61.70620 67.33676 71.03174 44.95933
772 94.31830 92.81340 76.79770 75.23167 78.32875 65.21278
773 33.58700 72.02210 25.10290 20.92924 30.52751 12.53115
774 61.68230 74.79530 29.37540 32.98376 39.57188 16.00749
775 40.03330 67.85520 9.998800 19.77372 27.40408 8.334323
776 39.49350 82.52170 20.30070 27.29750 40.03002 13.31890
777 48.32720 85.97050 34.16890 33.52978 46.46659 19.63359
778 50.08350 44.30950 39.86530 17.43866 17.52460 15.67380
779 57.84500 50.75920 39.70110 22.48621 22.45143 16.55063
780 32.07270 30.22030 21.24410 7.055192 7.387498 5.505651
781 37.35700 37.48330 30.62210 10.36983 11.10440 9.579814
782 36.94790 46.94440 83.88750 24.06918 26.02540 63.65465
783 44.99160 90.82560 92.06790 50.04128 65.05686 87.00878
784 49.95690 91.18020 100.0000 55.71093 71.17257 103.9810
785 20.78300 4.686700 12.81110 2.434524 1.911159 2.188036
786 31.41100 10.39540 13.21390 4.487575 3.376375 2.680828
787 35.63960 19.70170 33.48300 7.465764 6.315274 9.201276
788 47.72080 21.93050 43.71390 12.74732 10.07706 15.83007
789 49.60410 54.58530 66.82960 25.35091 27.22107 40.86672
790 63.09770 60.94690 69.30370 34.20379 35.32842 45.84382
791 63.19820 41.92000 48.55870 23.72829 20.83473 22.30031
792 70.34790 42.74990 63.56560 31.05300 26.40993 36.60916
793 88.08250 41.72350 62.49240 42.90232 33.00620 36.86250
794 56.21120 0.000000 43.08490 14.59745 9.662637 15.29654
795 65.60820 11.38190 46.54510 20.18877 13.56773 18.56118
796 65.75840 18.00010 75.44180 27.46338 20.63670 49.29494
797 78.81130 20.78180 78.28220 36.84745 26.93152 55.56819
798 67.57200 48.88190 10.70460 24.80076 22.59128 6.914568
799 69.15800 87.11010 16.54530 42.92581 52.10059 15.07211
800 75.77720 97.02390 15.80720 52.51919 63.87843 17.29647
801 18.57880 58.33450 13.15270 11.81841 18.58285 6.677178
802 64.47840 60.77540 38.16540 28.88989 30.17760 17.58460
803 75.98650 68.53180 49.56110 41.18763 41.72584 27.66907
804 90.05390 78.52130 79.66740 63.86949 63.05082 66.00688
805 89.77820 79.11170 89.76160 67.77630 67.72572 82.98186
806 100.0000 81.63380 90.94480 79.69763 76.31223 86.74434
807 83.41060 26.37220 0.000000 30.15587 20.14212 4.921527
808 90.96590 36.14780 15.73170 37.81007 26.53828 7.858526
809 94.37500 55.75510 15.73540 46.56537 37.78099 10.51014
810 40.30510 38.10320 61.70910 16.19668 16.17747 32.46139
811 40.04350 39.16550 90.01520 25.45001 25.60491 73.85865
812 48.55440 50.20590 100.0000 36.18869 38.37091 96.12737
813 13.52910 69.46220 18.40350 16.00726 26.07900 9.575051
814 43.18940 77.55710 40.60130 28.16872 38.60216 21.46149
815 59.54670 87.15750 42.38470 40.07159 51.23544 25.26535
816 0.000000 20.11470 67.11670 8.959029 9.066709 35.95361
817 11.15620 30.21890 75.13070 13.09423 13.86809 47.45201
818 100.0000 100.0000 100.0000 94.96831 99.77007 109.1234
819 41.03840 32.20880 26.50860 10.15829 9.670108 7.685960
820 51.15540 38.58570 27.89050 15.14887 14.14634 9.282173
821 65.44070 45.39870 35.71960 24.27574 21.73120 14.29792
822 82.23010 0.000000 33.45720 28.43098 17.43335 11.28645
823 89.46630 15.01280 41.74200 35.96752 22.82973 16.83417
824 92.02800 36.26690 51.54230 42.79890 30.58806 25.71610
825 100.0000 65.25440 63.13730 62.23106 52.92500 41.58644
END_DATA
CAL    

DESCRIPTOR "Argyll Device Calibration State"
ORIGINATOR "Argyll dispread"
CREATED "Tue May 26 16:06:53 2020"
DEVICE_CLASS "DISPLAY"
COLOR_REP "RGB"

BEGIN_ARGYLL_DISPCAL_ARGS
-v2 -qm -m -w0.3127,0.329 -gs -f1.0 -k0 -A4.0 -d1 -c1 -yn -P0.497237569061,1,1.74670184697 -F
END_ARGYLL_DISPCAL_ARGS


NUMBER_OF_FIELDS 4
BEGIN_DATA_FORMAT
RGB_I RGB_R RGB_G RGB_B
END_DATA_FORMAT

NUMBER_OF_SETS 256
BEGIN_DATA
0.00000000 0.00000000 0.00000000 0.00000000
0.00392157 0.01619250 0.01214360 0.00914817
0.00784314 0.02772790 0.02147930 0.01694370
0.01176470 0.03643460 0.02889000 0.02366600
0.01568630 0.04348150 0.03500340 0.02952240
0.01960780 0.04947650 0.04021800 0.03467360
0.02352940 0.05472900 0.04479270 0.03927990
0.02745100 0.05942980 0.04889890 0.04348520
0.03137250 0.06369590 0.05264280 0.04737740
0.03529410 0.06760870 0.05609980 0.05101560
0.03921570 0.07122380 0.05933010 0.05444620
0.04313730 0.07458310 0.06236950 0.05770770
0.04705880 0.07773500 0.06524630 0.06083320
0.05098040 0.08069500 0.06798720 0.06384620
0.05490200 0.08350360 0.07061370 0.06676040
0.05882350 0.08618020 0.07313860 0.06958490
0.06274510 0.08873560 0.07558400 0.07232360
0.06666670 0.09121180 0.07795050 0.07498420
0.07058820 0.09362580 0.08025020 0.07756730
0.07450980 0.09597830 0.08250670 0.08008450
0.07843140 0.09827840 0.08472080 0.08253460
0.08235290 0.10056100 0.08689430 0.08492710
0.08627450 0.10283700 0.08903660 0.08727420
0.09019610 0.10510600 0.09116560 0.08957390
0.09411760 0.10736400 0.09328310 0.09182960
0.09803920 0.10961600 0.09538680 0.09405680
0.10196100 0.11189100 0.09747550 0.09625690
0.10588200 0.11419400 0.09955210 0.09842910
0.10980400 0.11652600 0.10163700 0.10057700
0.11372500 0.11888800 0.10373500 0.10271600
0.11764700 0.12127500 0.10584400 0.10485300
0.12156900 0.12368100 0.10796100 0.10698500
0.12549000 0.12611500 0.11007400 0.10911200
0.12941200 0.12861100 0.11218600 0.11123900
0.13333300 0.13115600 0.11430300 0.11338300
0.13725500 0.13374900 0.11644100 0.11555100
0.14117600 0.13638600 0.11860300 0.11774700
0.14509800 0.13907000 0.12079100 0.11996900
0.14902000 0.14179500 0.12300700 0.12221300
0.15294100 0.14455300 0.12524900 0.12448300
0.15686300 0.14734800 0.12750600 0.12679000
0.16078400 0.15019200 0.12977800 0.12913900
0.16470600 0.15310500 0.13206900 0.13153300
0.16862700 0.15606300 0.13439100 0.13397100
0.17254900 0.15907300 0.13675200 0.13645400
0.17647100 0.16213400 0.13915800 0.13897700
0.18039200 0.16525000 0.14161500 0.14153900
0.18431400 0.16842800 0.14412400 0.14414100
0.18823500 0.17163900 0.14668900 0.14678900
0.19215700 0.17486500 0.14931300 0.14947800
0.19607800 0.17810400 0.15198200 0.15221200
0.20000000 0.18137300 0.15467800 0.15498800
0.20392200 0.18468000 0.15740200 0.15780700
0.20784300 0.18801500 0.16015900 0.16066000
0.21176500 0.19133300 0.16296400 0.16353800
0.21568600 0.19464500 0.16582000 0.16644400
0.21960800 0.19797500 0.16870600 0.16938700
0.22352900 0.20132500 0.17160300 0.17237300
0.22745100 0.20469800 0.17453600 0.17537600
0.23137300 0.20810500 0.17749800 0.17840600
0.23529400 0.21156500 0.18049100 0.18147200
0.23921600 0.21503200 0.18351800 0.18458000
0.24313700 0.21847400 0.18659300 0.18773100
0.24705900 0.22189100 0.18971100 0.19093600
0.25098000 0.22527600 0.19282800 0.19416800
0.25490200 0.22865800 0.19594500 0.19742300
0.25882400 0.23203400 0.19906700 0.20070100
0.26274500 0.23541700 0.20219800 0.20400500
0.26666700 0.23880200 0.20536500 0.20734100
0.27058800 0.24215200 0.20857000 0.21070500
0.27451000 0.24545000 0.21181500 0.21406600
0.27843100 0.24867900 0.21506500 0.21740300
0.28235300 0.25187400 0.21827400 0.22072700
0.28627500 0.25503800 0.22143900 0.22403000
0.29019600 0.25816000 0.22459300 0.22730800
0.29411800 0.26123400 0.22774100 0.23055900
0.29803900 0.26426800 0.23086300 0.23380100
0.30196100 0.26726700 0.23395600 0.23705300
0.30588200 0.27023800 0.23702000 0.24030700
0.30980400 0.27318900 0.24005400 0.24352400
0.31372500 0.27615000 0.24306500 0.24670100
0.31764700 0.27915400 0.24607100 0.24984300
0.32156900 0.28218800 0.24910700 0.25295000
0.32549000 0.28521200 0.25215800 0.25602300
0.32941200 0.28821700 0.25517800 0.25908700
0.33333300 0.29120200 0.25815700 0.26214300
0.33725500 0.29417200 0.26110200 0.26520500
0.34117600 0.29712100 0.26400900 0.26827800
0.34509800 0.30006400 0.26689000 0.27134300
0.34902000 0.30300200 0.26975300 0.27438700
0.35294100 0.30590200 0.27258100 0.27739700
0.35686300 0.30878800 0.27537700 0.28038900
0.36078400 0.31169800 0.27818500 0.28338400
0.36470600 0.31462700 0.28100900 0.28638300
0.36862700 0.31757500 0.28384900 0.28939100
0.37254900 0.32054400 0.28671400 0.29238800
0.37647100 0.32354300 0.28961000 0.29538200
0.38039200 0.32658400 0.29254500 0.29837600
0.38431400 0.32967700 0.29552200 0.30136900
0.38823500 0.33281700 0.29851300 0.30435800
0.39215700 0.33593800 0.30146900 0.30734500
0.39607800 0.33899800 0.30436400 0.31033400
0.40000000 0.34201100 0.30721100 0.31335900
0.40392200 0.34499300 0.31002400 0.31641200
0.40784300 0.34795800 0.31280900 0.31946700
0.41176500 0.35091300 0.31558300 0.32252200
0.41568600 0.35390100 0.31837700 0.32557400
0.41960800 0.35692800 0.32117100 0.32862700
0.42352900 0.35998200 0.32396500 0.33168300
0.42745100 0.36306100 0.32677300 0.33473200
0.43137300 0.36617500 0.32959700 0.33777700
0.43529400 0.36933200 0.33240900 0.34082700
0.43921600 0.37249500 0.33520000 0.34387000
0.44313700 0.37564000 0.33799300 0.34688300
0.44705900 0.37879100 0.34080300 0.34988300
0.45098000 0.38195800 0.34362300 0.35290000
0.45490200 0.38512700 0.34643800 0.35593000
0.45882400 0.38828800 0.34925100 0.35897100
0.46274500 0.39144700 0.35205100 0.36202100
0.46666700 0.39459400 0.35484000 0.36508900
0.47058800 0.39772800 0.35761500 0.36818500
0.47451000 0.40084500 0.36037200 0.37132200
0.47843100 0.40394000 0.36311100 0.37450400
0.48235300 0.40701400 0.36583300 0.37770700
0.48627500 0.41006900 0.36856400 0.38087200
0.49019600 0.41313500 0.37134400 0.38399600
0.49411800 0.41627300 0.37414300 0.38709500
0.49803900 0.41943800 0.37693000 0.39018300
0.50196100 0.42258700 0.37970500 0.39327100
0.50588200 0.42572100 0.38246900 0.39635900
0.50980400 0.42883900 0.38522500 0.39945400
0.51372500 0.43194600 0.38797400 0.40258200
0.51764700 0.43504400 0.39072000 0.40573600
0.52156900 0.43813900 0.39346300 0.40891400
0.52549000 0.44123400 0.39621100 0.41212000
0.52941200 0.44433000 0.39896000 0.41537500
0.53333300 0.44742800 0.40172500 0.41867500
0.53725500 0.45054000 0.40450800 0.42197100
0.54117600 0.45365900 0.40728800 0.42526100
0.54509800 0.45675100 0.41007300 0.42857400
0.54902000 0.45982800 0.41289600 0.43192000
0.55294100 0.46293600 0.41576000 0.43529200
0.55686300 0.46607400 0.41868000 0.43867700
0.56078400 0.46924900 0.42166300 0.44208900
0.56470600 0.47247500 0.42468700 0.44551600
0.56862700 0.47573500 0.42768000 0.44896100
0.57254900 0.47896000 0.43065100 0.45242300
0.57647100 0.48214200 0.43361700 0.45589800
0.58039200 0.48529800 0.43658200 0.45938600
0.58431400 0.48844100 0.43953200 0.46288600
0.58823500 0.49156800 0.44247800 0.46640100
0.59215700 0.49468200 0.44543800 0.46996400
0.59607800 0.49780500 0.44838200 0.47355600
0.60000000 0.50091800 0.45131000 0.47714100
0.60392200 0.50400800 0.45422500 0.48071900
0.60784300 0.50707300 0.45711900 0.48429000
0.61176500 0.51011800 0.45997300 0.48785600
0.61568600 0.51312400 0.46280000 0.49141900
0.61960800 0.51608600 0.46563100 0.49498200
0.62352900 0.51903800 0.46846700 0.49854300
0.62745100 0.52200600 0.47130400 0.50210900
0.63137300 0.52498900 0.47416500 0.50567000
0.63529400 0.52798800 0.47706300 0.50924200
0.63921600 0.53102100 0.48002400 0.51282900
0.64313700 0.53408900 0.48307600 0.51638900
0.64705900 0.53720900 0.48623900 0.51992300
0.65098000 0.54039900 0.48952900 0.52346600
0.65490200 0.54368500 0.49294800 0.52702600
0.65882400 0.54708600 0.49636300 0.53061100
0.66274500 0.55061000 0.49967500 0.53424000
0.66666700 0.55422500 0.50288800 0.53790400
0.67058800 0.55775100 0.50601200 0.54154500
0.67451000 0.56115600 0.50906600 0.54516600
0.67843100 0.56444800 0.51207100 0.54879200
0.68235300 0.56765300 0.51503900 0.55243400
0.68627500 0.57079100 0.51798200 0.55608300
0.69019600 0.57387400 0.52091900 0.55973400
0.69411800 0.57691300 0.52384500 0.56339000
0.69803900 0.57991100 0.52675500 0.56703700
0.70196100 0.58289700 0.52968700 0.57066700
0.70588200 0.58587400 0.53263500 0.57428200
0.70980400 0.58883500 0.53559900 0.57788900
0.71372500 0.59180800 0.53858300 0.58146000
0.71764700 0.59481000 0.54156500 0.58499900
0.72156900 0.59783100 0.54454900 0.58855000
0.72549000 0.60087200 0.54753100 0.59212200
0.72941200 0.60393300 0.55050800 0.59571300
0.73333300 0.60698100 0.55348000 0.59934700
0.73725500 0.61002400 0.55645800 0.60302900
0.74117600 0.61306500 0.55941800 0.60676100
0.74509800 0.61610500 0.56234900 0.61056700
0.74902000 0.61914200 0.56524900 0.61447600
0.75294100 0.62218700 0.56812600 0.61851600
0.75686300 0.62524000 0.57097700 0.62269800
0.76078400 0.62827800 0.57378400 0.62697900
0.76470600 0.63129800 0.57656400 0.63115700
0.76862700 0.63429800 0.57934200 0.63521100
0.77254900 0.63728600 0.58212500 0.63915700
0.77647100 0.64024600 0.58493300 0.64303100
0.78039200 0.64317600 0.58778300 0.64686600
0.78431400 0.64610900 0.59068500 0.65068200
0.78823500 0.64906900 0.59359700 0.65448600
0.79215700 0.65205500 0.59645800 0.65829700
0.79607800 0.65508300 0.59927200 0.66214400
0.80000000 0.65816100 0.60205500 0.66602200
0.80392200 0.66130100 0.60482000 0.66995800
0.80784300 0.66448200 0.60759000 0.67396900
0.81176500 0.66762000 0.61036400 0.67804900
0.81568600 0.67070500 0.61313000 0.68220600
0.81960800 0.67375300 0.61589900 0.68639600
0.82352900 0.67677900 0.61868800 0.69062300
0.82745100 0.67979400 0.62149200 0.69489000
0.83137300 0.68280800 0.62430900 0.69918900
0.83529400 0.68581700 0.62713800 0.70352200
0.83921600 0.68881600 0.62999300 0.70788000
0.84313700 0.69182600 0.63288400 0.71223800
0.84705900 0.69485700 0.63577700 0.71659700
0.85098000 0.69791100 0.63861300 0.72097400
0.85490200 0.70099100 0.64139400 0.72534600
0.85882400 0.70410700 0.64412900 0.72971600
0.86274500 0.70727400 0.64681900 0.73414300
0.86666700 0.71049900 0.64949700 0.73863400
0.87058800 0.71371200 0.65217000 0.74321100
0.87451000 0.71688600 0.65485000 0.74791800
0.87843100 0.72004200 0.65754600 0.75271600
0.88235300 0.72318400 0.66022800 0.75746300
0.88627500 0.72633900 0.66289000 0.76218100
0.89019600 0.72954200 0.66553800 0.76691900
0.89411800 0.73279200 0.66819100 0.77172300
0.89803900 0.73610800 0.67085600 0.77660200
0.90196100 0.73944400 0.67352900 0.78155000
0.90588200 0.74276800 0.67619100 0.78657100
0.90980400 0.74608800 0.67884600 0.79167200
0.91372500 0.74943600 0.68150500 0.79686100
0.91764700 0.75282800 0.68415700 0.80217800
0.92156900 0.75623200 0.68678800 0.80757600
0.92549000 0.75963100 0.68941800 0.81296300
0.92941200 0.76304700 0.69204400 0.81838000
0.93333300 0.76648300 0.69466800 0.82389000
0.93725500 0.76991600 0.69729100 0.82955100
0.94117600 0.77336800 0.69990400 0.83538500
0.94509800 0.77683500 0.70250500 0.84125400
0.94902000 0.78032400 0.70509400 0.84721200
0.95294100 0.78382600 0.70767100 0.85335000
0.95686300 0.78734400 0.71023700 0.85957400
0.96078400 0.79088300 0.71280000 0.86592300
0.96470600 0.79444600 0.71536100 0.87238200
0.96862700 0.79803200 0.71792300 0.87895500
0.97254900 0.80164300 0.72048500 0.88564900
0.97647100 0.80527700 0.72304800 0.89246700
0.98039200 0.80893500 0.72561100 0.89940300
0.98431400 0.81261700 0.72817600 0.90646800
0.98823500 0.81632200 0.73074000 0.91367000
0.99215700 0.82005100 0.73330600 0.92101500
0.99607800 0.82380500 0.73587200 0.92850800
1.00000000 0.82758400 0.73843800 0.93615300
END_DATA
