CTI3   

DESCRIPTOR "Argyll Calibration Target chart information 3"
ORIGINATOR "Argyll dispread"
CREATED "Tue May 26 16:06:53 2020"
DEVICE_CLASS "DISPLAY"
SINGLE_DIM_STEPS "25"
COMP_GREY_STEPS "73"
DARK_REGION_EMPHASIS "1.6"
COLOR_REP "RGB_XYZ"
TARGET_INSTRUMENT "X-Rite i1 DisplayPro, ColorMunki Display"
DISPLAY_TYPE_REFRESH "NO"
DISPLAY_TYPE_BASE_ID "1"
INSTRUMENT_TYPE_SPECTRAL "NO"
LUMINANCE_XYZ_CDM2 "61.799292 65.006877 70.939260"
NORMALIZED_TO_Y_100 "YES"
VIDEO_LUT_CALIBRATION_POSSIBLE "YES"

BEGIN_ARGYLL_COLPROF_ARGS
-v -qh -aX -bn -C "No copyright. Created with DisplayCAL 3.8.9.3 and ArgyllCMS 2.1.1" -M "N121X5-L06" -A "Lenovo Group Limited"
END_ARGYLL_COLPROF_ARGS

OBSERVER "1931_2"
USE_BLACK_POINT_COMPENSATION "NO"
BLACK_POINT_CORRECTION "0.0"
HIRES_B2A "YES"
HIRES_B2A_SIZE "-1"
SMOOTH_B2A "YES"
PATCH_SEQUENCE "OPTIMIZE_DISPLAY_RESPONSE_DELAY"

NUMBER_OF_FIELDS 7
BEGIN_DATA_FORMAT
SAMPLE_ID RGB_R RGB_G RGB_B XYZ_X XYZ_Y XYZ_Z
END_DATA_FORMAT

NUMBER_OF_SETS 825
BEGIN_DATA
1 100.0000 100.0000 100.0000 95.06578 100.0000 109.1258
2 1.960800 1.960800 1.960800 0.663233 0.703384 0.841030
3 3.921600 3.921600 3.921600 0.797826 0.846252 0.994684
4 5.882400 5.882400 5.882400 0.981064 1.037894 1.198865
5 9.803900 9.803900 9.803900 1.408764 1.475724 1.702774
6 13.72600 13.72600 13.72600 2.107272 2.226262 2.536775
7 17.64700 17.64700 17.64700 3.062911 3.228318 3.613807
8 21.56900 21.56900 21.56900 4.120965 4.308591 4.861892
9 25.49000 25.49000 25.49000 5.488530 5.765751 6.438194
10 29.41200 29.41200 29.41200 6.928708 7.326262 8.131312
11 33.33300 33.33300 33.33300 8.822690 9.229183 10.02486
12 37.25500 37.25500 37.25500 11.00376 11.57013 12.81821
13 41.17600 41.17600 41.17600 13.70767 14.47119 15.85347
14 45.09800 45.09800 45.09800 16.54013 17.41800 18.86247
15 49.02000 49.02000 49.02000 19.69581 20.72879 22.50597
16 52.94100 52.94100 52.94100 23.22894 24.37169 26.44355
17 56.86300 56.86300 56.86300 27.10514 28.32018 31.02062
18 60.78400 60.78400 60.78400 31.21288 32.89833 35.89929
19 64.70600 64.70600 64.70600 35.67613 37.40421 40.96547
20 68.62700 68.62700 68.62700 40.91970 43.11689 46.77604
21 72.54900 72.54900 72.54900 46.33408 48.65598 53.20010
22 76.47100 76.47100 76.47100 52.14883 55.00175 59.91168
23 80.39200 80.39200 80.39200 57.93434 61.11979 66.94233
24 84.31400 84.31400 84.31400 64.27794 67.73905 73.97288
25 88.23500 88.23500 88.23500 71.20116 74.87829 82.17268
26 92.15700 92.15700 92.15700 78.84178 82.75067 90.66618
27 96.07800 96.07800 96.07800 86.05691 90.41863 99.74745
28 0.000000 30.49090 60.37150 8.724425 9.998561 29.10427
29 0.000000 41.79040 61.36620 11.20161 14.18500 31.02287
30 0.000000 40.95750 81.11830 16.64496 19.21028 57.15394
31 27.45100 48.23640 100.0000 29.74949 34.08361 94.98445
32 44.35390 63.66090 100.0000 39.45285 45.75160 97.95558
33 0.000000 80.39050 80.34080 31.92907 45.68748 62.69554
34 0.000000 89.36350 100.0000 45.74651 64.16466 101.9692
35 56.83520 0.000000 33.94740 14.00007 9.004115 10.27833
36 64.50400 13.55060 37.75090 18.70988 12.53267 13.02583
37 78.62520 68.37310 36.76080 40.56742 40.55903 19.32702
38 100.0000 69.60230 52.92450 62.28952 54.58526 32.44763
39 100.0000 78.75450 71.25200 71.46420 66.84202 54.89642
40 69.25320 0.000000 34.60240 20.53133 12.83896 11.04805
41 85.58480 0.000000 47.82640 32.59237 20.47493 20.88081
42 91.08320 6.738200 57.49570 39.45397 25.27668 30.06884
43 21.42860 0.000000 0.000000 2.221936 1.595345 0.995458
44 24.50980 0.000000 0.000000 2.616200 1.831043 1.054536
45 27.77780 0.000000 0.000000 3.199209 2.176507 1.136816
46 31.25000 0.000000 0.000000 3.899366 2.591746 1.233793
47 34.94620 0.000000 0.000000 4.755870 3.100993 1.351587
48 38.88890 0.000000 0.000000 5.683316 3.649506 1.478708
49 43.10350 0.000000 0.000000 7.066467 4.467147 1.661800
50 47.61910 0.000000 0.000000 8.607771 5.378711 1.864771
51 52.46910 0.000000 0.000000 10.51904 6.505588 2.103423
52 57.69230 0.000000 0.000000 12.57198 7.717074 2.355742
53 63.33330 0.000000 0.000000 15.09908 9.205332 2.657841
54 69.44440 0.000000 0.000000 18.88076 11.43171 3.083461
55 76.08700 0.000000 0.000000 22.86612 13.77044 3.506786
56 83.33330 0.000000 0.000000 27.61695 16.56589 3.982380
57 91.26980 0.000000 0.000000 34.16982 20.38590 4.556938
58 100.0000 100.0000 0.000000 74.12304 78.10823 17.84739
59 100.0000 100.0000 24.89000 75.46734 79.64382 22.27989
60 100.0000 100.0000 43.69190 77.62854 81.51637 31.59234
61 100.0000 0.000000 22.72100 43.43144 26.00780 8.838797
62 100.0000 24.98640 52.69920 49.29634 32.44430 26.83440
63 0.000000 10.68380 0.000000 0.861630 1.150481 0.902263
64 0.000000 13.15790 0.000000 1.026456 1.444002 0.984411
65 0.000000 15.76580 0.000000 1.223542 1.800922 1.082251
66 0.000000 18.51850 0.000000 1.441392 2.189148 1.190639
67 0.000000 21.42860 0.000000 1.717379 2.679215 1.324759
68 0.000000 24.50980 0.000000 2.068202 3.306315 1.492996
69 0.000000 27.77780 0.000000 2.511193 4.083467 1.702398
70 0.000000 31.25000 0.000000 2.996831 4.936186 1.933457
71 0.000000 34.94620 0.000000 3.593881 5.989037 2.211844
72 0.000000 38.88890 0.000000 4.417573 7.424794 2.590394
73 0.000000 43.10350 0.000000 5.422534 9.168546 3.046402
74 0.000000 47.61910 0.000000 6.579105 11.18355 3.573042
75 0.000000 52.46910 0.000000 8.028204 13.69474 4.214323
76 0.000000 57.69230 0.000000 9.816133 16.77802 4.997694
77 0.000000 63.33330 0.000000 11.76186 20.12287 5.834732
78 0.000000 69.44440 0.000000 14.61327 24.87056 7.006428
79 0.000000 76.08700 0.000000 17.86597 30.54342 8.355880
80 0.000000 84.77160 24.53490 23.66120 39.63446 14.41289
81 0.000000 100.0000 23.80960 32.37948 54.22016 17.29076
82 26.09970 100.0000 35.96750 35.91307 56.78640 22.92769
83 27.67880 100.0000 88.54630 49.22551 69.40003 81.53968
84 0.000000 63.59510 58.47270 17.56626 25.66583 31.10552
85 60.94320 65.23370 100.0000 47.09692 50.97861 99.09589
86 76.55250 69.39140 100.0000 58.34158 59.91949 101.1206
87 0.000000 0.000000 10.68380 0.733133 0.744023 1.573709
88 0.000000 0.000000 13.15790 0.823605 0.818667 2.008722
89 0.000000 0.000000 15.76580 0.903089 0.886489 2.392774
90 0.000000 0.000000 18.51850 1.053354 1.012598 3.096454
91 0.000000 0.000000 21.42860 1.227304 1.161519 3.945099
92 0.000000 0.000000 24.50980 1.383367 1.297342 4.697664
93 0.000000 0.000000 27.77780 1.649719 1.525552 5.964287
94 0.000000 0.000000 31.25000 1.900883 1.744154 7.169818
95 0.000000 0.000000 34.94620 2.233844 2.032210 8.730713
96 0.000000 0.000000 38.88890 2.708373 2.447348 11.00626
97 0.000000 0.000000 43.10350 3.228898 2.903857 13.44441
98 0.000000 0.000000 47.61910 3.889797 3.489794 16.56893
99 0.000000 0.000000 52.46910 4.779300 4.288237 20.79432
100 0.000000 0.000000 57.69230 5.746155 5.170479 25.35477
101 0.000000 0.000000 63.33330 6.864046 6.195436 30.59268
102 0.000000 0.000000 69.44440 8.487229 7.706516 38.13745
103 0.000000 0.000000 76.08700 10.50759 9.640091 47.44057
104 0.000000 0.000000 83.33330 12.78848 11.90700 57.92751
105 0.000000 0.000000 91.26980 16.01886 15.33527 72.36867
106 100.0000 30.69420 100.0000 65.81788 50.47340 97.33935
107 100.0000 73.17560 100.0000 80.25556 74.98909 103.6698
108 0.000000 1.938000 0.000000 0.593715 0.658110 0.760329
109 1.938000 1.938000 1.938000 0.663499 0.703198 0.840072
110 2.604200 2.604200 2.604200 0.717772 0.769261 0.891740
111 3.280800 3.280800 3.280800 0.738909 0.783322 0.922765
112 3.968300 3.968300 3.968300 0.797131 0.845980 0.993593
113 4.666700 4.666700 4.666700 0.881859 0.937613 1.087692
114 5.376300 5.376300 5.376300 0.929127 0.986441 1.141155
115 6.097600 6.097600 6.097600 1.013866 1.059723 1.245118
116 6.830600 6.830600 6.830600 1.033775 1.103288 1.256077
117 7.575800 7.575800 7.575800 1.156778 1.212440 1.410622
118 8.333300 8.333300 8.333300 1.230869 1.287908 1.493947
119 9.103600 9.103600 9.103600 1.304777 1.364758 1.579578
120 9.887000 9.887000 9.887000 1.408216 1.476038 1.701234
121 10.68380 10.68380 10.68380 1.513687 1.586953 1.821776
122 11.49420 11.49420 11.49420 1.653921 1.761308 1.963795
123 12.31880 12.31880 12.31880 1.825009 1.926319 2.101244
124 13.15790 13.15790 13.15790 2.036446 2.120820 2.388902
125 14.01180 14.01180 14.01180 2.164581 2.260594 2.542989
126 14.88100 14.88100 14.88100 2.295284 2.401479 2.704527
127 15.76580 15.76580 15.76580 2.545646 2.690920 2.922805
128 16.66670 16.66670 16.66670 2.778871 2.909874 3.251743
129 17.58410 17.58410 17.58410 3.064752 3.230771 3.611930
130 18.51850 18.51850 18.51850 3.206776 3.386453 3.785530
131 19.47040 19.47040 19.47040 3.564785 3.748635 4.156122
132 20.44020 20.44020 20.44020 3.715199 3.914110 4.341222
133 21.42860 21.42860 21.42860 4.117265 4.309895 4.858859
134 22.43590 22.43590 22.43590 4.389409 4.622686 5.095744
135 23.46280 23.46280 23.46280 4.714953 4.975236 5.470291
136 24.50980 24.50980 24.50980 5.048573 5.333965 5.865947
137 25.57760 25.57760 25.57760 5.487000 5.767771 6.431925
138 26.66670 26.66670 26.66670 5.906766 6.265261 6.874280
139 27.77780 27.77780 27.77780 6.369228 6.724102 7.475862
140 28.91160 28.91160 28.91160 6.742266 7.128646 7.895859
141 30.06870 30.06870 30.06870 7.269006 7.715600 8.563647
142 31.25000 31.25000 31.25000 7.853931 8.249943 9.042288
143 32.45610 32.45610 32.45610 8.451979 8.910072 9.753037
144 33.68790 33.68790 33.68790 8.964078 9.424253 10.34358
145 34.94620 34.94620 34.94620 9.696921 10.15810 11.06175
146 36.23190 36.23190 36.23190 10.36965 10.88181 12.07640
147 37.54580 37.54580 37.54580 11.31417 11.91293 13.16735
148 38.88890 38.88890 38.88890 11.99387 12.63608 13.91803
149 40.26220 40.26220 40.26220 13.00657 13.72436 15.06263
150 41.66670 41.66670 41.66670 13.99739 14.78640 15.90443
151 43.10350 43.10350 43.10350 14.96502 15.72831 17.07414
152 44.57360 44.57360 44.57360 16.18963 17.03000 18.72945
153 46.07840 46.07840 46.07840 16.99940 17.90883 19.64846
154 47.61910 47.61910 47.61910 18.43217 19.35324 21.04071
155 49.19680 49.19680 49.19680 19.69650 20.72332 22.47419
156 50.81300 50.81300 50.81300 21.44622 22.63265 24.45201
157 52.46910 52.46910 52.46910 22.78068 23.91815 26.29043
158 54.16670 54.16670 54.16670 24.29303 25.48348 27.85960
159 55.90720 55.90720 55.90720 26.23244 27.58200 29.99517
160 57.69230 57.69230 57.69230 27.71116 29.24689 32.04870
161 59.52380 59.52380 59.52380 29.82665 31.52894 34.24446
162 61.40350 61.40350 61.40350 31.79134 33.53166 36.83463
163 63.33330 63.33330 63.33330 33.47999 35.29867 38.58103
164 65.31530 65.31530 65.31530 36.59035 38.43623 42.14944
165 67.35160 67.35160 67.35160 39.36773 41.28858 45.25394
166 69.44440 69.44440 69.44440 41.92011 44.08598 47.94637
167 71.59620 71.59620 71.59620 45.01561 47.58128 51.82737
168 73.80950 73.80950 73.80950 47.69374 50.13791 54.50135
169 76.08700 76.08700 76.08700 51.45815 54.20374 59.32414
170 78.43140 78.43140 78.43140 54.68945 57.63771 63.42528
171 80.84580 80.84580 80.84580 58.62503 61.91780 67.52987
172 83.33330 83.33330 83.33330 62.50298 65.79014 71.62849
173 85.89740 85.89740 85.89740 66.85417 70.60295 77.19742
174 88.54170 88.54170 88.54170 71.94057 75.79126 82.76141
175 91.26980 91.26980 91.26980 76.85407 80.69954 88.61568
176 94.08600 94.08600 94.08600 82.36969 86.46868 95.05991
177 96.99450 96.99450 96.99450 87.89420 92.53062 101.5089
178 0.000000 54.44540 80.30680 20.30283 25.80986 57.69119
179 0.000000 69.26020 84.90120 27.70530 37.51317 66.71565
180 0.000000 76.27670 100.0000 38.67807 52.31757 99.24715
181 26.80640 87.84050 100.0000 47.25211 64.03931 102.2365
182 82.45790 0.000000 19.86110 27.49503 16.64141 6.773206
183 100.0000 27.51350 20.83130 45.75981 29.64153 9.195073
184 100.0000 67.66430 21.62630 57.74890 49.92598 14.62198
185 100.0000 76.90080 39.84440 63.82845 58.94893 24.38285
186 26.32900 80.38140 0.000000 22.48745 35.68060 9.593406
187 54.99780 81.08150 55.19660 36.97553 46.54199 33.73346
188 16.79760 0.000000 43.99740 4.469916 3.707938 14.47336
189 22.89340 0.000000 61.91900 8.574008 7.190032 30.47075
190 40.67880 0.000000 66.03720 13.46228 10.41492 35.53488
191 56.68330 0.000000 67.24990 19.90396 14.33651 37.95617
192 72.15110 0.000000 68.96480 28.34450 19.47545 41.08389
193 100.0000 0.000000 83.12270 55.27105 36.97773 63.65393
194 100.0000 47.41320 89.35840 64.58807 50.96308 77.77911
195 26.74020 64.51820 0.000000 14.75827 22.59418 6.457966
196 63.89050 67.63690 0.000000 29.14286 32.47687 8.639653
197 78.84990 83.53060 0.000000 46.49973 51.77790 12.91826
198 78.08490 85.36080 20.21240 47.99368 54.22545 16.22845
199 0.000000 0.000000 8.333300 0.684570 0.700406 1.319666
200 14.47520 0.000000 11.52210 1.589060 1.263613 1.812842
201 16.92690 10.21550 21.05940 2.583898 2.346781 4.174117
202 24.74260 38.45890 74.57180 16.20591 17.54548 47.55039
203 33.68610 59.63410 78.59510 25.70308 30.99535 57.03036
204 88.80520 100.0000 90.88620 79.47192 87.80281 89.57204
205 100.0000 0.000000 0.000000 42.68058 25.37027 5.194639
206 100.0000 27.08430 0.000000 45.02996 28.93129 6.133794
207 100.0000 42.64490 34.01570 50.03177 35.97512 15.54605
208 26.75410 15.13210 0.000000 3.623434 3.170755 1.422167
209 31.48830 22.20420 23.79990 6.070942 5.640302 5.774649
210 54.51710 29.27090 27.12440 14.80718 11.93074 8.334043
211 48.52270 52.35430 0.000000 16.67431 18.80647 5.403572
212 49.15560 68.40420 0.000000 22.93661 29.30126 8.026733
213 49.76340 76.77060 24.01790 28.31586 37.58513 13.72265
214 52.19350 100.0000 71.49000 50.54721 67.73120 55.87934
215 53.81130 100.0000 82.14530 54.60743 71.49744 71.55280
216 27.69090 24.75880 43.64240 7.651171 7.504448 15.24047
217 72.07810 39.23750 53.76020 29.31061 23.70594 26.72999
218 18.94660 91.30960 14.10730 27.83560 45.74809 13.20395
219 0.000000 100.0000 86.42370 45.25102 66.56314 75.99820
220 0.000000 100.0000 100.0000 51.92044 74.46109 104.0943
221 33.07420 100.0000 100.0000 55.88845 76.86734 104.9510
222 63.77370 100.0000 100.0000 67.59801 83.78731 106.6423
223 39.93720 38.08310 0.000000 9.981461 10.58006 3.345291
224 64.14900 43.93330 22.97440 22.15694 19.71187 9.000538
225 78.07590 50.06900 38.75200 33.92886 28.99818 17.51204
226 63.62300 0.000000 17.34400 15.73970 9.696943 4.802104
227 76.15160 0.000000 51.10960 26.78451 17.22282 22.52678
228 0.000000 0.000000 1.938000 0.578376 0.614275 0.811733
229 0.000000 0.000000 3.968300 0.600229 0.632656 0.927780
230 0.000000 0.000000 6.097600 0.639967 0.666031 1.122869
231 0.000000 0.000000 0.000000 0.564524 0.602438 0.741967
232 31.46110 57.28090 15.22750 13.53707 19.01419 7.156274
233 31.61440 57.10030 37.81990 15.34985 20.64358 15.40690
234 36.18180 74.87890 61.52040 28.50815 38.57348 38.04791
235 60.35120 77.76430 69.77430 41.08038 48.19644 49.45742
236 39.70980 28.82340 54.11910 12.79027 11.70897 24.32542
237 50.28030 31.51750 65.73660 19.45280 16.92784 37.23486
238 75.56860 38.01380 87.54430 40.86917 33.79411 70.83704
239 76.12370 43.62820 100.0000 48.47436 43.54813 96.90354
240 0.000000 85.13900 57.87660 28.29875 43.81370 35.32502
241 40.51450 90.48400 75.41520 41.77005 56.98872 58.22887
242 18.52260 45.19880 47.65990 10.83193 14.14639 20.01851
243 25.17370 46.07080 58.38620 13.87873 16.73740 29.27513
244 44.72010 50.84960 74.54440 24.56548 26.35583 49.90000
245 57.15080 54.79310 74.16340 30.80044 31.46648 50.61674
246 24.46140 0.000000 79.76210 13.84809 12.13542 53.69859
247 43.28460 0.000000 100.0000 27.07060 24.74924 92.52980
248 71.11220 24.43180 100.0000 41.63637 35.21851 94.82173
249 0.000000 52.17380 42.72680 10.87407 16.30776 16.95228
250 0.000000 81.25860 43.18210 23.34618 37.78690 22.15126
251 0.000000 0.000000 100.0000 20.49442 20.79576 91.39456
252 23.27760 26.13510 100.0000 24.26338 25.30236 92.87437
253 88.66410 46.63130 100.0000 58.49229 50.42638 98.32764
254 100.0000 55.61710 100.0000 72.29262 61.59133 100.3506
255 65.99300 21.13520 0.000000 18.08724 12.35068 3.442298
256 72.94820 100.0000 0.000000 52.08694 65.16598 15.95048
257 86.02500 100.0000 0.000000 60.75123 70.22232 16.78695
258 85.39090 100.0000 26.64720 61.80689 71.60557 21.80390
259 29.90050 40.56570 0.000000 7.817283 9.844831 3.198588
260 81.18370 40.88440 0.000000 31.07727 23.68115 5.953190
261 100.0000 44.05320 0.000000 48.37901 34.71250 7.656774
262 100.0000 49.33530 21.76520 50.76929 38.12943 11.67029
263 100.0000 62.17410 35.27530 56.43852 46.89428 18.88677
264 53.53830 24.49210 0.000000 12.60715 9.544124 2.923414
265 61.57390 32.08630 60.73740 23.17871 18.89374 32.19402
266 71.55750 45.23400 75.98760 36.16003 31.43978 53.63630
267 100.0000 0.000000 39.35210 44.90592 27.30060 16.11769
268 100.0000 0.000000 53.26890 47.15270 29.25338 26.32808
269 100.0000 0.000000 66.50550 50.16318 32.03228 40.49231
270 100.0000 38.75630 78.68220 58.30794 42.91157 59.02963
271 100.0000 53.73360 77.98810 62.46700 50.11742 59.96415
272 100.0000 66.39390 88.31150 70.93117 62.10638 78.45403
273 48.41650 27.30690 36.35620 12.75504 10.63210 11.89120
274 68.00650 28.44790 44.74570 23.16545 17.35367 18.48822
275 69.89110 30.78170 58.16440 27.05795 20.72449 29.92805
276 100.0000 49.65080 58.63170 55.73131 42.56399 34.72231
277 43.24510 100.0000 0.000000 37.74925 56.67032 14.26502
278 58.91760 100.0000 0.000000 44.00852 60.43264 15.05351
279 69.29830 100.0000 25.89260 51.26756 65.39729 20.40431
280 83.37060 100.0000 45.50100 62.94198 72.95020 31.69510
281 88.14580 100.0000 62.17100 69.63572 77.99980 47.42533
282 100.0000 100.0000 74.34560 84.36163 87.82891 63.18643
283 63.07580 53.11750 21.62360 23.82251 23.54807 9.568831
284 88.72070 63.28270 34.51150 45.54156 40.64482 17.51806
285 100.0000 63.02870 73.18640 64.04611 54.16027 53.84185
286 3.968300 0.000000 0.000000 0.681426 0.673130 0.763125
287 6.097600 0.000000 0.000000 0.791667 0.739448 0.781023
288 8.333300 0.000000 0.000000 0.897341 0.803605 0.798323
289 10.68380 0.000000 0.000000 1.022899 0.879555 0.817702
290 41.32740 15.77420 0.000000 7.162636 5.326176 1.927884
291 41.38760 35.04890 16.58740 10.18462 10.04509 5.068594
292 72.05860 74.90230 35.74280 39.75873 43.70922 19.60810
293 72.94470 83.65180 66.63730 50.73766 57.09250 47.85430
294 65.96770 39.18120 0.000000 20.86514 17.27535 4.766323
295 82.11440 56.18250 0.000000 35.78444 31.40960 7.931820
296 100.0000 59.44130 0.000000 53.32581 43.19478 9.813674
297 0.000000 3.968300 0.000000 0.635695 0.738934 0.783135
298 0.000000 6.097600 0.000000 0.698078 0.848602 0.815549
299 49.15280 11.76890 14.59360 9.930334 6.695625 3.673559
300 68.62470 26.71020 25.97260 21.38046 15.35886 8.498807
301 100.0000 39.66430 45.73060 50.66552 35.86911 22.48737
302 100.0000 42.44980 66.47630 55.58389 40.94862 42.79357
303 40.80180 0.000000 25.55910 7.174321 4.769568 6.056759
304 55.08740 0.000000 53.49160 15.86983 10.91777 23.17271
305 68.55080 0.000000 56.34560 23.25467 15.47422 26.97682
306 24.69670 76.80030 35.38140 22.36359 34.29278 17.31878
307 42.59600 100.0000 59.72450 43.83057 62.58552 41.33754
308 72.43090 100.0000 77.87600 63.20661 75.87642 66.81731
309 15.51440 26.17690 9.019200 3.418045 4.443877 2.411725
310 26.58400 31.04140 10.24050 5.566022 6.444959 3.111961
311 28.46690 35.03590 22.74420 7.134962 8.335418 6.201456
312 54.54800 55.68120 23.02480 21.00606 22.91078 9.956142
313 55.86680 56.43220 46.42250 24.29356 26.04746 21.93792
314 26.73850 0.000000 100.0000 22.96490 22.26925 91.96623
315 41.73230 31.20830 100.0000 29.21357 29.04608 93.73861
316 52.60440 42.40090 89.01920 30.26539 28.98702 72.38017
317 69.28490 55.61070 100.0000 48.15981 47.39464 98.14237
318 0.000000 18.29900 47.89380 4.831739 5.148317 17.30493
319 16.80660 28.01460 62.15250 9.812402 10.28119 31.19295
320 17.73820 0.000000 31.30500 3.075388 2.453536 7.433225
321 40.77520 0.000000 36.84200 8.182594 5.646850 10.85834
322 43.07200 0.000000 52.24730 11.23957 8.126515 21.72694
323 83.96060 48.23470 84.65740 47.90456 40.55929 67.62729
324 86.61180 63.12010 100.0000 62.39405 58.89574 100.4567
325 59.49180 24.50280 48.07810 18.71980 14.19563 20.18580
326 77.53590 25.57920 68.53960 33.72372 24.57894 41.70983
327 100.0000 100.0000 100.0000 94.83102 99.71796 109.1246
328 44.61320 42.92490 31.03500 13.96500 14.67654 10.46488
329 60.39410 43.68750 41.43290 21.71446 19.78163 16.97849
330 60.74230 44.21740 58.06170 25.21328 23.05371 30.77698
331 75.42740 56.23610 53.80820 36.11241 33.13629 29.01038
332 84.34640 64.84180 70.35360 49.35672 45.86198 48.97445
333 39.77480 32.68550 45.11800 11.77463 11.29138 17.19464
334 45.40490 39.86270 56.07670 17.29721 17.00256 27.27522
335 46.75800 68.10410 67.52870 29.89584 36.14689 44.04421
336 64.61040 89.56420 91.23480 57.31863 67.97973 86.06960
337 72.18530 91.81660 100.0000 67.31889 78.26842 105.3845
338 0.000000 63.25240 100.0000 32.03042 40.91960 96.52617
339 26.56730 65.36700 100.0000 35.68397 44.34268 97.69720
340 36.52790 77.50690 100.0000 43.92156 55.95820 100.3975
341 58.25300 79.14630 100.0000 52.88095 62.24176 101.8278
342 58.67510 0.000000 100.0000 33.11091 28.32787 93.37459
343 73.71980 0.000000 100.0000 41.17580 33.06077 94.20782
344 87.71490 26.46590 100.0000 53.24425 42.31430 96.22516
345 0.000000 11.00890 17.50280 1.352016 1.594266 3.109035
346 0.000000 14.88700 32.74990 2.568350 2.850710 7.961725
347 0.000000 31.20010 44.30140 5.895362 7.485742 15.59219
348 0.000000 44.27610 47.05620 9.160159 12.86853 18.65991
349 100.0000 73.18270 0.000000 59.25192 53.27446 12.29571
350 100.0000 84.89340 26.53270 66.70681 64.82998 19.65977
351 100.0000 89.84410 51.68380 72.83222 72.72699 35.77284
352 100.0000 89.75610 71.46350 77.37458 77.03459 57.07593
353 100.0000 89.66850 100.0000 88.94057 89.81854 107.0019
354 40.44990 0.000000 80.67840 17.72000 14.58536 56.05184
355 56.99110 0.000000 82.85950 24.61371 18.92078 60.01888
356 71.85030 0.000000 82.91380 32.20515 23.42755 60.85554
357 87.75070 0.000000 100.0000 50.87044 38.77661 95.32498
358 100.0000 0.000000 100.0000 62.62032 45.67983 96.13832
359 13.15790 0.000000 0.000000 1.279731 1.032496 0.856686
360 15.76580 0.000000 0.000000 1.497187 1.162445 0.889865
361 18.51850 0.000000 0.000000 1.780864 1.331223 0.932288
362 21.73230 52.53290 45.87860 13.00220 17.68444 19.52066
363 65.74310 68.05030 78.95030 42.01850 44.53256 60.76774
364 88.96250 80.04490 100.0000 72.69102 74.12256 104.0633
365 0.000000 14.56270 11.67980 1.323981 1.781289 2.042219
366 0.000000 25.33790 19.60200 2.748743 4.005562 4.164859
367 0.000000 24.70440 84.57420 14.89566 15.27013 60.98320
368 0.000000 29.72890 100.0000 22.71474 24.85403 92.30583
369 0.000000 49.29970 100.0000 27.37140 32.83813 94.41520
370 0.000000 34.46570 32.98740 4.968928 7.104053 9.108041
371 20.74150 34.29990 35.90310 6.949367 8.414957 11.37583
372 24.44500 43.10290 37.77730 9.665793 12.33843 13.24200
373 0.000000 42.04950 29.38960 6.405218 9.835582 8.641925
374 0.000000 59.73500 33.60380 12.30817 19.71288 12.79214
375 0.000000 68.75780 48.96180 18.08794 28.03936 23.84693
376 20.41300 70.99600 50.11660 20.89001 30.87445 25.99985
377 26.71620 100.0000 50.10140 37.97903 58.42909 32.24823
378 20.52140 48.18910 0.000000 8.331354 12.52304 3.920990
379 36.12610 55.40680 0.000000 13.39133 17.79855 5.238111
380 42.49500 65.96070 28.85070 20.71606 27.32129 13.00244
381 40.85450 67.52730 41.73930 22.24674 29.35257 19.53522
382 48.36290 100.0000 45.63090 43.08119 61.24687 29.41196
383 60.94760 100.0000 61.67960 51.71882 67.36686 44.54213
384 76.05470 100.0000 62.77390 61.05369 72.94612 46.97645
385 0.000000 28.23820 12.88060 2.824403 4.417092 2.877289
386 0.000000 43.46800 18.44440 6.101039 9.908286 5.467724
387 30.39890 48.48110 19.07130 10.66056 14.17019 6.734673
388 42.37920 48.28410 51.64760 17.48212 19.30598 24.31928
389 75.43410 74.25990 58.64140 44.76034 47.22497 36.97050
390 0.000000 57.82000 18.56000 10.40825 17.37885 7.379939
391 0.000000 71.42570 27.07090 16.73572 27.79199 12.36437
392 34.97840 79.07900 72.41860 33.26039 44.74330 52.18511
393 45.75740 79.57950 89.80470 42.48802 52.86556 79.90316
394 72.69770 100.0000 90.38850 67.59463 80.51920 86.70783
395 84.88300 100.0000 100.0000 80.71617 91.45629 108.0323
396 47.55220 68.94720 60.24460 28.78585 35.06595 35.95019
397 80.17930 70.54250 75.49010 50.37294 50.04401 56.44660
398 86.87500 100.0000 77.94120 73.22458 81.81145 67.93321
399 0.000000 100.0000 41.40400 34.03872 55.62292 25.15174
400 0.000000 100.0000 72.85680 40.62394 61.86496 55.62936
401 29.41540 100.0000 77.12360 45.06708 65.12290 63.11352
402 0.000000 100.0000 57.26220 36.65827 58.11334 37.61748
403 26.28620 100.0000 64.62510 40.90809 61.22202 46.13521
404 0.000000 8.333300 0.000000 0.766603 0.974001 0.851442
405 14.47250 11.62790 0.000000 1.766436 1.772246 1.066176
406 14.50620 19.93940 0.000000 2.438360 2.967315 1.399199
407 27.10590 25.79920 0.000000 4.760421 5.107485 1.954288
408 40.20360 27.01990 0.000000 8.017874 7.186972 2.442818
409 100.0000 86.79250 0.000000 66.08102 64.83936 14.99506
410 100.0000 100.0000 60.25100 80.49811 84.14632 46.07564
411 0.000000 83.33330 0.000000 21.41710 36.61376 9.778026
412 0.000000 91.26980 0.000000 25.83004 44.05460 11.45193
413 0.000000 100.0000 0.000000 30.99287 52.63553 13.30707
414 24.96440 100.0000 0.000000 33.23439 53.94232 13.65253
415 53.59300 100.0000 28.92090 43.33839 60.73450 20.63026
416 0.636100 0.636100 0.636100 0.586048 0.625452 0.758070
417 1.282100 1.282100 1.282100 0.604125 0.640991 0.778621
418 27.33980 0.000000 14.94340 3.416156 2.379476 2.656054
419 30.74290 0.000000 39.17610 5.896706 4.373957 11.95358
420 30.35780 0.000000 50.95800 7.469984 5.814601 19.99938
421 32.00760 15.73050 54.35490 9.395223 7.982950 23.70432
422 51.12680 43.62240 69.37850 23.28334 22.55484 42.71067
423 67.07370 57.11430 75.75210 37.00895 36.09310 53.83861
424 91.26390 59.96400 74.88170 54.90645 47.81165 54.99425
425 100.0000 75.27070 80.08790 72.09382 66.12928 66.51761
426 100.0000 90.26660 86.91640 82.67317 82.40520 80.95431
427 100.0000 100.0000 88.09660 89.25335 92.78048 85.41322
428 44.09450 80.47600 0.000000 26.89939 38.17849 10.17778
429 43.87220 92.29050 13.31050 33.94284 49.92944 14.07843
430 88.92730 91.89490 82.87890 71.56019 76.23761 73.41961
431 89.48190 92.01220 100.0000 80.08278 86.18883 106.7841
432 0.000000 80.43470 67.85530 27.99623 41.75781 44.64703
433 21.67480 86.58710 80.03230 36.96021 52.21664 64.19004
434 85.65330 0.000000 65.30810 36.03821 23.67501 37.79119
435 86.09630 12.12760 73.35990 39.74310 27.09581 47.75239
436 100.0000 18.03400 76.24720 54.07889 36.39537 53.61088
437 6.146800 81.53570 34.47530 22.87316 37.37728 17.40406
438 15.14650 91.41460 41.94720 29.86623 47.65252 24.03691
439 16.62800 32.55000 0.000000 4.207532 5.900542 2.187588
440 56.01840 35.70000 8.323700 15.45450 13.19545 4.433769
441 78.20830 38.75390 41.14680 31.02586 23.91071 17.66631
442 63.85320 14.62440 13.85560 16.63145 10.86204 4.447748
443 65.69370 32.12350 35.09740 21.28604 16.43377 12.35903
444 68.43610 50.96890 68.94330 34.03037 31.32326 44.24969
445 79.83630 61.35170 80.37070 48.27516 45.09532 63.02028
446 32.91950 34.20330 44.02480 10.18590 10.63162 16.39371
447 38.18960 42.77270 53.70520 15.08094 16.31054 25.14211
448 38.49010 49.18860 63.11070 18.73814 21.00674 35.04901
449 58.68260 68.11530 65.60150 34.52746 38.71112 42.23159
450 81.06040 80.56330 72.98100 56.07388 58.91031 55.88042
451 93.24270 82.89120 75.13310 67.50912 67.17701 60.17369
452 74.50140 55.32510 29.18260 32.03425 29.33729 13.04690
453 77.35650 59.76480 42.10580 36.79844 34.48813 20.73019
454 89.60010 71.87530 46.21450 51.96667 49.52945 26.99982
455 48.64290 45.28220 24.24200 15.52152 16.11545 8.587255
456 49.48580 89.19070 50.83100 38.14934 51.60522 31.34920
457 53.95620 90.19250 70.85350 45.29956 58.20430 53.31622
458 16.97990 78.05910 61.32210 26.21665 38.61420 37.50970
459 16.50840 89.93360 73.68810 36.15567 52.97788 54.94830
460 37.92620 92.88340 85.69210 46.15412 62.58616 75.62521
461 12.57250 8.910700 4.774100 1.460536 1.435812 1.223832
462 21.78700 13.20410 15.67590 3.115973 2.779908 2.924782
463 23.63170 13.49440 44.04550 5.819470 5.080767 14.90700
464 51.31270 22.52420 76.92770 21.95211 18.15657 51.52797
465 51.62790 55.06940 90.73920 34.31617 35.96908 77.11310
466 17.66050 14.34060 74.21890 11.63403 10.77584 45.14174
467 18.71240 14.06720 88.42750 16.72545 15.79322 67.98035
468 27.55000 31.04210 88.61620 20.10881 20.13958 69.75572
469 15.91530 38.76700 89.03320 20.07686 21.96903 70.66399
470 15.58080 87.64670 91.75310 41.41475 57.55996 84.09132
471 50.89810 100.0000 91.89340 57.41589 74.81225 88.22935
472 13.34190 14.66780 61.61520 7.960384 7.462878 30.02543
473 36.23740 14.83530 89.51710 20.51833 18.37201 70.88914
474 59.87110 40.69860 100.0000 38.56700 36.78684 95.77206
475 8.807000 22.90850 12.08990 2.453358 3.386595 2.496037
476 25.86960 72.56890 10.52920 18.66459 29.16596 8.872495
477 33.65690 74.11260 45.63920 24.09967 34.31280 23.36326
478 34.31040 87.39970 48.26230 32.08646 47.21010 28.35670
479 62.16720 90.80820 54.38540 45.90103 57.88076 35.86045
480 56.68260 89.75870 15.14940 38.00256 51.03720 14.67642
481 64.73590 91.03540 33.49300 43.93409 55.61368 21.09318
482 62.91450 82.64130 0.000000 36.19718 44.97423 11.64071
483 74.78370 88.31500 34.87060 48.32240 56.53491 21.98029
484 17.08460 43.84280 11.80900 7.099344 10.59097 4.406747
485 37.22880 50.55800 12.34890 12.63466 15.99152 5.765411
486 53.70760 50.13500 61.89820 24.45840 24.71007 35.09646
487 62.79140 53.87560 61.74770 29.85501 29.20789 35.74300
488 58.04400 46.70370 51.51890 23.07507 22.10382 24.60291
489 57.73680 60.98510 84.61270 36.83679 39.03850 68.06336
490 69.17270 60.68280 87.92910 43.94661 43.67620 74.46419
491 11.91750 8.362000 30.46650 2.646237 2.443392 7.272566
492 12.12500 19.97010 31.34390 3.596351 4.037864 7.886883
493 11.35840 42.47250 37.95030 7.961893 11.17781 12.92453
494 11.95910 61.98330 49.29160 15.86925 23.41874 23.39767
495 11.12180 62.65260 83.72330 25.11506 32.55365 64.33315
496 6.136600 92.12340 87.01850 41.18895 59.42614 75.94040
497 87.39230 47.81620 21.29500 38.40734 30.39864 10.43478
498 100.0000 56.01340 46.73440 55.52791 44.16801 24.99806
499 0.000000 0.000000 0.000000 0.564554 0.601859 0.743076
500 0.000000 22.50230 28.11810 2.974258 3.868701 6.756774
501 72.28570 33.23020 72.65770 32.57356 25.67335 47.32764
502 80.43720 54.37580 72.40300 43.57429 38.53933 50.45862
503 24.55000 12.56760 22.70790 3.873590 3.279399 4.846354
504 23.78400 33.13980 28.98670 6.551997 7.759722 8.062240
505 29.59190 41.81440 32.50180 9.668988 11.88420 10.53127
506 38.40050 48.85370 42.22260 14.94794 17.56498 17.24306
507 52.88860 17.83660 7.940400 11.81049 8.301331 3.096452
508 52.55110 16.81200 34.48340 13.04257 9.320198 10.42310
509 64.05430 15.88170 62.77370 22.97136 16.59457 33.72900
510 63.69920 18.11990 87.46470 30.36611 24.13145 68.49653
511 86.83800 0.000000 82.38210 42.34756 29.33201 61.38433
512 90.31610 32.37180 81.80990 48.25198 35.94324 62.57451
513 90.13780 69.55320 83.45790 60.56278 56.76816 70.04484
514 44.70160 48.88710 39.56950 16.60958 18.42740 15.66353
515 45.72890 58.14920 42.31360 20.44725 24.26146 18.92242
516 56.51540 65.57330 53.97700 29.57629 33.40081 29.82964
517 64.08590 89.24340 70.00890 49.36523 60.17171 52.76300
518 78.38920 92.98670 78.71280 62.86043 71.38236 67.03944
519 21.19430 83.68530 24.52170 24.67291 39.52924 14.48867
520 37.15580 90.61580 33.75670 32.49512 48.57102 19.83745
521 75.18800 24.51240 36.89040 26.07783 18.12612 13.68059
522 79.98070 30.99130 48.07830 31.64238 22.82135 22.06015
523 87.60650 33.18820 68.66250 42.20773 30.88956 43.07630
524 87.64520 37.04560 90.44270 50.41940 39.84037 77.22422
525 61.16360 66.67900 47.72200 31.31054 34.88188 25.19227
526 72.01860 74.60280 49.41170 41.51645 45.06750 28.58122
527 89.55920 81.06170 56.60370 58.60623 59.29852 37.38069
528 66.07670 55.12790 0.000000 25.31919 24.88145 6.728249
529 83.33890 72.51740 0.000000 44.14330 43.88286 10.94087
530 85.27650 91.76780 49.17890 59.66256 66.02919 32.73249
531 0.000000 51.97620 61.20260 14.14315 19.27215 32.29830
532 0.000000 64.15500 71.22230 21.14663 29.38694 46.23400
533 24.57010 69.67280 91.69640 33.17257 42.41622 80.74709
534 10.19850 31.47760 37.68020 5.563217 7.072358 11.83454
535 31.52500 38.50480 40.47050 10.29526 11.66323 14.52725
536 47.12880 41.79970 50.06090 17.22265 17.08804 22.64368
537 58.67020 69.29960 74.36900 37.47103 41.87431 53.78562
538 70.46750 77.15430 81.19820 50.16565 54.62341 66.65964
539 81.69050 80.17920 91.06710 62.64667 65.36068 84.77471
540 96.24130 89.60330 90.37350 79.39296 80.77373 86.23932
541 100.0000 100.0000 100.0000 95.01705 99.88503 109.1246
542 17.90100 88.27160 51.83220 30.14736 46.58186 30.84952
543 15.29990 92.67400 66.16220 35.28994 53.28357 46.33196
544 31.25940 26.14260 73.88460 15.02532 14.22366 45.68088
545 44.17310 27.36660 83.11010 21.92155 19.71633 60.95046
546 62.89370 34.65110 90.68840 33.65190 29.28578 75.25688
547 69.38480 49.54320 89.71580 41.26542 37.97415 76.45582
548 10.08070 15.49500 6.443200 1.775851 2.154763 1.548655
549 19.26590 20.61930 13.42580 3.307106 3.640124 2.799146
550 64.60300 30.13840 14.37750 19.07428 14.39521 5.501243
551 78.37280 30.37070 16.16250 27.21240 19.21115 6.669927
552 80.30410 58.91760 18.94030 36.40271 33.22664 10.89073
553 88.23250 70.74740 27.63900 47.84478 45.67236 16.18396
554 73.89110 64.75190 12.48220 33.91940 34.09099 9.985511
555 90.62120 70.15530 11.62170 48.80788 45.85159 12.14178
556 92.05370 83.15760 13.37080 57.12843 58.05479 15.15872
557 71.69200 34.01760 6.479900 23.41071 17.61662 5.078359
558 74.33340 44.73400 18.72810 28.15796 23.31408 8.555533
559 12.91630 15.45410 39.66220 4.089989 4.059171 11.86883
560 15.35710 35.35000 56.17210 9.602053 11.18372 25.73796
561 9.689900 41.99480 53.12920 9.976490 12.91017 23.36288
562 10.23080 55.20280 54.99660 14.30462 19.99753 27.14867
563 37.38850 61.25710 70.34400 24.61972 29.97451 45.62976
564 46.63700 74.61500 78.36090 36.48718 44.67358 60.56236
565 59.24220 79.32660 89.68910 48.49766 56.41108 81.04021
566 74.64710 81.01860 100.0000 62.94762 69.23498 103.2531
567 74.27180 17.16390 59.25180 28.21117 19.54945 30.47722
568 74.25680 52.25980 59.67850 35.56377 31.78240 34.08609
569 73.56780 59.54120 67.60190 39.77303 38.03000 44.36846
570 12.56240 22.42160 18.72440 2.994932 3.728363 4.011085
571 19.10010 29.12330 19.08350 4.580974 5.645591 4.527742
572 60.82350 49.93970 31.18050 22.57634 21.88203 12.36610
573 69.23530 58.20130 47.55740 32.39189 31.52529 23.86888
574 88.04400 62.08820 50.34230 47.00206 41.86853 28.10308
575 1.938000 0.000000 0.000000 0.617341 0.634836 0.753395
576 30.57820 9.458400 22.25060 4.672053 3.562233 4.768667
577 39.13590 11.25240 30.10290 7.570963 5.565799 7.931459
578 48.25790 10.63650 37.54090 11.26687 7.886390 12.01249
579 61.70010 45.84400 73.07790 29.65643 27.32291 48.53000
580 77.65080 55.76390 87.90420 47.56043 43.50421 74.40603
581 91.80830 61.50090 93.35200 62.78185 56.11838 86.37143
582 55.83030 24.63210 18.34310 14.04428 10.62912 5.486663
583 52.69660 40.39140 0.000000 14.94705 14.07135 4.145260
584 56.98710 52.63750 9.134500 20.29513 21.08669 6.534774
585 60.22960 67.30970 36.48350 29.49167 33.49201 17.64704
586 68.69930 80.77380 45.74620 42.30194 49.04999 27.07127
587 82.07190 80.82550 48.78600 51.15028 54.48856 30.22547
588 86.28860 83.38600 64.94120 59.32703 62.06265 46.85016
589 68.31160 72.94750 63.57070 41.27138 45.00175 41.34613
590 72.74370 83.69910 77.64480 53.69362 60.19685 62.89882
591 73.92630 92.24180 89.52830 63.79078 73.38407 84.01499
592 29.68360 82.24050 55.52170 29.31307 42.61584 33.19745
593 37.36230 92.47970 66.94500 39.56248 55.92645 48.16681
594 68.51090 94.69740 66.16300 54.20065 65.92395 49.36643
595 15.08880 34.09840 11.81370 4.582186 6.543166 3.348979
596 37.11610 41.88870 22.71370 10.80661 12.35115 7.242939
597 54.74320 75.21100 38.67770 31.16555 38.85234 20.36583
598 66.35200 79.09320 54.95080 41.59141 48.26431 34.09387
599 10.26490 38.06020 18.79050 5.355666 8.040940 5.164095
600 24.06610 40.63440 23.62840 7.795713 10.28326 6.880122
601 33.45440 55.05520 45.17720 16.06779 20.52307 19.64462
602 54.02090 71.65240 46.96170 30.29096 36.92097 25.04785
603 20.12900 62.91780 69.89290 21.76582 28.86314 44.72585
604 30.49950 70.57570 81.99030 30.64761 39.49843 64.07288
605 35.48390 80.47510 82.70500 37.33887 49.20852 67.64187
606 55.21450 89.47970 83.72510 49.76988 62.11524 71.76148
607 37.82460 12.19450 9.201200 6.019980 4.395662 2.323799
608 51.54750 17.48580 26.13170 12.09610 8.709870 7.195018
609 52.55790 0.000000 20.24860 11.08570 6.988332 4.953021
610 62.12520 13.17470 27.72800 16.36712 10.82292 8.237815
611 63.23490 33.74120 74.85470 27.98641 23.29584 49.58052
612 50.81430 9.706200 70.59190 18.75146 14.31223 42.04669
613 51.50570 15.89510 87.73580 25.20123 21.00614 68.81535
614 53.58660 21.56220 100.0000 32.29599 29.25124 93.69492
615 0.000000 0.000000 0.000000 0.564536 0.602275 0.742991
616 12.38590 0.000000 18.98330 1.700577 1.410481 3.366553
617 20.26040 16.95160 30.28330 4.070371 3.912712 7.537272
618 20.73750 24.85740 30.64890 5.060708 5.540871 8.150054
619 19.48610 27.97610 41.20050 6.503363 7.184725 13.90969
620 21.90620 37.75370 46.81630 9.270556 11.02889 18.19604
621 30.03400 48.99950 69.33580 18.38146 21.40856 42.43573
622 50.59640 68.35610 91.76410 39.87763 45.57185 81.57461
623 89.79570 71.85560 92.71450 65.25820 62.63207 86.73536
624 73.47190 12.90700 27.01890 22.73193 14.54370 8.622363
625 86.01900 27.98020 26.77020 32.88238 22.30507 10.06067
626 87.58130 30.28810 38.05910 35.87139 24.77752 15.50281
627 87.92380 18.71380 63.07640 38.85370 26.26183 35.56120
628 86.59660 15.10820 90.39830 46.49555 34.02087 75.72470
629 75.27380 22.73330 91.82100 39.76701 31.14542 77.53338
630 29.67940 34.23370 53.13160 10.93898 11.52196 23.12553
631 31.75770 39.32100 65.70850 15.24700 16.26781 37.09968
632 50.52850 80.32470 71.17080 38.67683 48.51447 51.13804
633 62.08080 80.11940 79.55520 46.15873 53.66035 64.36596
634 11.29640 34.11430 24.90400 4.954344 6.966526 6.579704
635 67.26660 37.64760 27.72300 22.91223 18.46399 10.14943
636 82.44970 40.44600 31.08870 33.09634 25.21695 12.47466
637 90.28570 47.27000 46.11540 43.02108 33.74368 23.05430
638 7.007800 7.335700 14.29780 1.299802 1.340643 2.284688
639 9.737400 12.06070 23.30120 2.171630 2.273043 4.722837
640 18.60190 11.72890 51.81990 6.300320 5.634160 20.73675
641 33.46330 10.45960 69.16520 12.71045 10.60860 39.07380
642 41.20490 23.33830 69.51240 16.05014 13.97790 40.48335
643 55.37720 37.83990 78.79190 26.76314 24.09958 55.87047
644 63.36980 92.43720 79.36550 53.74122 65.64902 66.49787
645 83.55660 92.49240 90.93940 71.15883 78.02364 87.78078
646 28.19760 21.65160 15.36550 4.760521 4.597267 3.413368
647 52.24520 33.14120 17.24550 13.74372 11.81361 5.579627
648 66.44080 74.70780 15.77620 34.76146 40.24270 12.10555
649 78.83360 76.05700 13.12810 42.77182 45.55884 12.60758
650 93.54180 81.55980 38.67900 59.68888 59.31914 24.29086
651 100.0000 82.50360 58.95170 69.91468 66.73128 40.53977
652 84.51360 50.09220 8.183200 36.29715 29.70727 7.943202
653 89.50730 53.40580 36.05020 43.09193 35.48111 17.32284
654 87.84030 54.07930 63.91020 46.51728 39.27590 39.84426
655 89.24020 67.23480 65.45110 53.85088 49.55567 44.22984
656 23.04200 22.78100 8.732900 3.910015 4.234815 2.285065
657 34.09620 25.75000 8.629800 6.417088 6.154862 2.764615
658 49.83510 40.43330 13.43950 14.10499 13.71402 5.318882
659 48.89040 64.21330 22.35030 22.11834 27.33561 10.83834
660 68.32510 64.60280 25.56500 31.54020 32.96534 13.03440
661 82.23890 77.98000 29.92710 47.32076 49.48248 18.15179
662 43.93250 51.87890 24.21260 15.69215 18.43088 9.223193
663 48.36990 58.41850 53.03460 23.26132 26.67557 27.01420
664 49.61940 59.33640 62.36570 26.02615 29.22992 36.73243
665 49.76880 63.56820 76.69750 31.72820 35.85439 56.14734
666 65.10810 71.34980 88.88540 46.75795 50.75611 78.04832
667 74.83760 83.97510 92.51190 60.61240 66.86065 88.04685
668 31.14230 64.67380 47.19690 19.26245 26.55418 22.51125
669 46.15090 66.14300 50.79550 25.19852 31.20809 26.58522
670 46.89500 77.93200 59.19180 32.82839 42.44715 36.52696
671 60.90660 77.47110 61.82010 39.30565 46.54512 40.44124
672 17.28550 44.32320 30.42970 8.416640 11.90438 9.826665
673 36.76460 48.23810 32.10160 13.17316 15.99458 11.40681
674 51.36650 53.28480 35.06710 20.02047 21.85319 14.00293
675 90.47170 89.27480 40.60860 61.45545 65.20175 26.95242
676 25.97190 38.72260 11.27960 6.979426 9.046078 3.902937
677 27.59910 51.86060 81.13070 22.48599 26.20764 59.58916
678 40.11700 58.91640 87.79660 30.53187 34.77995 72.47344
679 29.29310 23.85120 33.28440 6.488392 6.298945 9.238385
680 38.37510 30.05320 34.74110 9.708054 9.272700 10.79870
681 47.35020 36.34360 39.06630 14.52747 13.57914 14.38934
682 75.96250 14.19040 12.76830 23.85752 15.04863 4.979930
683 76.70840 13.36770 42.54910 26.64468 17.33684 16.90939
684 89.85050 22.10990 54.41360 38.86102 26.03069 27.44983
685 100.0000 24.67350 65.95700 52.03063 35.01548 40.33285
686 46.24400 11.77860 48.34920 12.11697 8.911843 19.00734
687 49.28450 27.19400 53.62270 15.89066 13.19464 24.29289
688 55.36160 39.24400 61.20220 22.20940 20.00476 33.01722
689 81.43480 43.62590 66.22630 39.58731 31.82730 41.06945
690 85.38450 43.85070 76.04590 45.10898 36.30816 54.55493
691 91.04080 56.89090 84.22200 56.41686 48.50612 69.09237
692 0.000000 0.000000 0.000000 0.564787 0.602333 0.742483
693 23.50950 8.128400 28.19780 3.847057 3.113191 6.635799
694 35.74840 21.78350 42.80550 8.922799 7.795206 14.99769
695 73.04610 92.37460 51.67010 52.28537 62.24370 34.38007
696 33.20710 100.0000 21.84070 36.07558 56.39084 17.32325
697 67.70730 100.0000 46.52130 52.63810 67.04204 31.36775
698 8.291900 49.76250 84.91760 20.86739 25.08885 65.14972
699 22.01150 55.58870 91.94490 26.87493 32.11579 78.03920
700 7.295000 23.91080 42.40440 4.967609 5.700035 14.04660
701 31.16040 48.32090 48.92250 13.99222 17.13526 21.56360
702 39.27120 59.41650 55.68700 21.12813 25.99339 29.24070
703 50.63300 89.60430 61.13460 40.98467 54.45436 41.36247
704 80.25700 90.69420 62.24160 58.23621 65.36478 44.92526
705 84.73240 90.66040 71.83210 64.01821 69.68651 56.66214
706 22.78910 49.73630 27.28230 10.24070 14.50119 9.340486
707 38.37300 56.89010 30.25660 16.02910 20.60533 11.86555
708 49.46640 60.80860 35.43140 22.00023 26.03159 15.31448
709 67.06670 64.29790 54.78630 34.82807 36.16420 31.13046
710 73.26980 64.68510 63.25320 40.11241 39.86679 39.52877
711 81.10170 67.37780 57.33910 45.49789 43.98870 34.86663
712 81.64810 73.66030 66.45770 51.03244 51.35889 45.90567
713 42.26240 24.20530 10.61860 8.565443 7.222959 3.244268
714 43.11020 24.84210 20.94620 9.412748 7.921864 5.452405
715 51.43910 33.93820 33.65660 14.91483 13.05718 11.16995
716 71.26330 44.27110 45.92120 29.05020 24.63402 21.00533
717 82.25920 44.26210 53.09510 37.25620 29.80761 27.19397
718 39.74140 0.000000 12.87990 6.192908 4.008056 2.682051
719 42.40530 10.31680 22.04260 7.797754 5.443493 5.063583
720 47.80280 32.88350 46.29230 14.76417 13.15011 18.71449
721 57.28670 34.90290 49.34510 19.66211 16.62964 21.66066
722 23.68570 12.31950 7.737900 3.029944 2.613201 1.776384
723 32.97740 18.42930 11.62800 5.418807 4.618070 2.782254
724 40.21310 21.41220 26.27870 8.372217 6.903319 6.820148
725 58.13370 29.80780 37.93760 17.39198 13.82118 13.47990
726 63.79410 54.60780 52.81880 28.62718 28.14359 27.22429
727 10.51190 18.31370 22.20750 2.622943 3.085241 4.660274
728 11.01780 28.02530 27.37960 4.131471 5.361128 6.917379
729 12.95820 43.27170 70.80770 14.74024 17.43741 43.21076
730 14.22130 53.68370 70.50010 17.97003 23.02389 44.15448
731 74.40500 67.46120 78.64990 46.87684 47.00878 61.31974
732 77.92870 70.17690 89.95040 54.71131 55.04989 80.33761
733 13.36190 52.04020 20.37720 9.473369 14.83187 7.189076
734 13.21980 54.33070 36.27050 11.50510 17.24897 13.66291
735 13.31340 72.99050 42.04290 19.89370 31.11669 20.20028
736 35.18630 37.83640 10.33260 8.672991 9.759983 3.965897
737 43.39740 46.49490 10.36610 13.48849 15.21289 5.335932
738 45.29490 56.83340 8.736400 17.09626 20.80478 6.516221
739 57.56650 63.24860 14.20370 24.50485 27.89433 8.964704
740 57.11880 75.84260 13.06790 30.45816 37.90938 11.15652
741 88.88600 92.67200 10.60720 59.34210 64.88860 16.38349
742 90.00030 93.03540 29.83390 61.79418 67.15191 21.88127
743 28.26910 62.79530 28.81620 15.87864 23.09159 11.82465
744 28.79000 63.17190 55.97260 19.75472 26.59463 29.75050
745 28.45540 67.41040 66.50970 24.10301 32.16638 42.05857
746 40.76370 70.15060 88.35640 35.83284 43.54447 75.17076
747 17.70550 24.76790 50.22310 7.209279 7.551233 20.09108
748 28.90980 24.69350 60.31990 10.85684 10.33653 29.67844
749 42.85850 38.44200 74.61220 20.52459 20.08742 48.30470
750 59.49310 52.29790 87.60610 35.35984 35.05819 71.23488
751 16.43120 62.95050 32.88090 14.45516 22.36753 13.17082
752 14.99640 71.43410 64.34600 23.48443 33.67461 39.37794
753 15.55030 73.69760 74.45210 27.45526 38.16598 52.61146
754 17.59220 77.00700 89.13450 34.46397 46.39053 76.70126
755 23.24880 54.27500 59.15350 16.22434 21.00553 31.18991
756 36.26370 54.48060 59.57130 19.22676 23.02119 32.17538
757 90.00360 14.19420 12.66770 34.03079 20.99598 5.921678
758 90.76700 12.72920 28.23080 35.13538 21.79764 10.30256
759 100.0000 22.30410 37.28660 46.46339 29.70136 15.60492
760 100.0000 21.39710 89.25420 59.34006 41.90778 75.36844
761 26.97040 0.000000 25.29350 3.935119 2.841298 5.446037
762 26.81810 10.86510 37.43190 5.325790 4.390485 10.85497
763 36.72210 10.72710 38.38320 7.621271 5.741611 11.76482
764 38.78840 12.44300 50.39240 10.04894 7.837364 20.18824
765 44.02590 15.85100 61.16090 14.03210 11.19306 30.73280
766 54.83790 19.70750 63.26600 19.16651 14.75132 33.32578
767 55.83440 14.46720 50.37390 16.33812 11.72917 21.10519
768 77.82770 24.74140 54.33290 30.48692 21.53860 26.76138
769 86.47880 55.21130 54.28110 43.90789 37.35925 30.13603
770 92.27310 74.96460 61.18250 58.96574 56.35550 41.16204
771 91.91230 91.23860 61.70620 67.33682 71.03180 44.95947
772 94.31830 92.81340 76.79770 75.23171 78.32880 65.21287
773 33.58700 72.02210 25.10290 20.92940 30.52766 12.53136
774 61.68230 74.79530 29.37540 32.98389 39.57201 16.00769
775 40.03330 67.85520 9.998800 19.77388 27.40423 8.334538
776 39.49350 82.52170 20.30070 27.29764 40.03015 13.31910
777 48.32720 85.97050 34.16890 33.52991 46.46670 19.63378
778 50.08350 44.30950 39.86530 17.43883 17.52478 15.67400
779 57.84500 50.75920 39.70110 22.48636 22.45160 16.55083
780 32.07270 30.22030 21.24410 7.055379 7.387695 5.505872
781 37.35700 37.48330 30.62210 10.37001 11.10459 9.580026
782 36.94790 46.94440 83.88750 24.06933 26.02556 63.65475
783 44.99160 90.82560 92.06790 50.04138 65.05693 87.00883
784 49.95690 91.18020 100.0000 55.71101 71.17263 103.9810
785 20.78300 4.686700 12.81110 2.434489 1.911368 2.190304
786 31.41100 10.39540 13.21390 4.487753 3.376581 2.681153
787 35.63960 19.70170 33.48300 7.465950 6.315474 9.201491
788 47.72080 21.93050 43.71390 12.74750 10.07725 15.83027
789 49.60410 54.58530 66.82960 25.35106 27.22123 40.86687
790 63.09770 60.94690 69.30370 34.20392 35.32856 45.84395
791 63.19820 41.92000 48.55870 23.72844 20.83490 22.30049
792 70.34790 42.74990 63.56560 31.05314 26.41009 36.60931
793 88.08250 41.72350 62.49240 42.90243 33.00634 36.86265
794 56.21120 0.000000 43.08490 14.59762 9.662829 15.29674
795 65.60820 11.38190 46.54510 20.18893 13.56791 18.56137
796 65.75840 18.00010 75.44180 27.46352 20.63687 49.29507
797 78.81130 20.78180 78.28220 36.84757 26.93168 55.56830
798 67.57200 48.88190 10.70460 24.80091 22.59144 6.914786
799 69.15800 87.11010 16.54530 42.92592 52.10069 15.07231
800 75.77720 97.02390 15.80720 52.51928 63.87851 17.29667
801 18.57880 58.33450 13.15270 11.81859 18.58302 6.677396
802 64.47840 60.77540 38.16540 28.89003 30.17775 17.58480
803 75.98650 68.53180 49.56110 41.18774 41.72596 27.66924
804 90.05390 78.52130 79.66740 63.86956 63.05090 66.00697
805 89.77820 79.11170 89.76160 67.77636 67.72579 82.98192
806 100.0000 81.63380 90.94480 79.69766 76.31228 86.74439
807 83.41060 26.37220 0.000000 30.15601 20.14229 4.921749
808 90.96590 36.14780 15.73170 37.81019 26.53844 7.858742
809 94.37500 55.75510 15.73540 46.56547 37.78112 10.51035
810 40.30510 38.10320 61.70910 16.19685 16.17765 32.46155
811 40.04350 39.16550 90.01520 25.45016 25.60507 73.85873
812 48.55440 50.20590 100.0000 36.18882 38.37104 96.12740
813 13.52910 69.46220 18.40350 16.00743 26.07916 9.575263
814 43.18940 77.55710 40.60130 28.16886 38.60229 21.46168
815 59.54670 87.15750 42.38470 40.07171 51.23554 25.26553
816 0.000000 20.11470 67.11670 8.959212 9.066903 35.95377
817 11.15620 30.21890 75.13070 13.09440 13.86827 47.45214
818 100.0000 100.0000 100.0000 94.96831 99.77007 109.1234
819 41.03840 32.20880 26.50860 10.15847 9.670300 7.686176
820 51.15540 38.58570 27.89050 15.14904 14.14652 9.282386
821 65.44070 45.39870 35.71960 24.27589 21.73137 14.29812
822 82.23010 0.000000 33.45720 28.43112 17.43353 11.28666
823 89.46630 15.01280 41.74200 35.96765 22.82989 16.83437
824 92.02800 36.26690 51.54230 42.79901 30.58821 25.71628
825 100.0000 65.25440 63.13730 62.23113 52.92510 41.58658
END_DATA
CAL    

DESCRIPTOR "Argyll Device Calibration State"
ORIGINATOR "Argyll dispread"
CREATED "Tue May 26 16:06:53 2020"
DEVICE_CLASS "DISPLAY"
COLOR_REP "RGB"

BEGIN_ARGYLL_DISPCAL_ARGS
-v2 -qm -m -w0.3127,0.329 -gs -f1.0 -k0 -A4.0 -d1 -c1 -yn -P0.497237569061,1,1.74670184697 -F
END_ARGYLL_DISPCAL_ARGS


NUMBER_OF_FIELDS 4
BEGIN_DATA_FORMAT
RGB_I RGB_R RGB_G RGB_B
END_DATA_FORMAT

NUMBER_OF_SETS 256
BEGIN_DATA
0.00000000 0.00000000 0.00000000 0.00000000
0.00392157 0.01619250 0.01214360 0.00914817
0.00784314 0.02772790 0.02147930 0.01694370
0.01176470 0.03643460 0.02889000 0.02366600
0.01568630 0.04348150 0.03500340 0.02952240
0.01960780 0.04947650 0.04021800 0.03467360
0.02352940 0.05472900 0.04479270 0.03927990
0.02745100 0.05942980 0.04889890 0.04348520
0.03137250 0.06369590 0.05264280 0.04737740
0.03529410 0.06760870 0.05609980 0.05101560
0.03921570 0.07122380 0.05933010 0.05444620
0.04313730 0.07458310 0.06236950 0.05770770
0.04705880 0.07773500 0.06524630 0.06083320
0.05098040 0.08069500 0.06798720 0.06384620
0.05490200 0.08350360 0.07061370 0.06676040
0.05882350 0.08618020 0.07313860 0.06958490
0.06274510 0.08873560 0.07558400 0.07232360
0.06666670 0.09121180 0.07795050 0.07498420
0.07058820 0.09362580 0.08025020 0.07756730
0.07450980 0.09597830 0.08250670 0.08008450
0.07843140 0.09827840 0.08472080 0.08253460
0.08235290 0.10056100 0.08689430 0.08492710
0.08627450 0.10283700 0.08903660 0.08727420
0.09019610 0.10510600 0.09116560 0.08957390
0.09411760 0.10736400 0.09328310 0.09182960
0.09803920 0.10961600 0.09538680 0.09405680
0.10196100 0.11189100 0.09747550 0.09625690
0.10588200 0.11419400 0.09955210 0.09842910
0.10980400 0.11652600 0.10163700 0.10057700
0.11372500 0.11888800 0.10373500 0.10271600
0.11764700 0.12127500 0.10584400 0.10485300
0.12156900 0.12368100 0.10796100 0.10698500
0.12549000 0.12611500 0.11007400 0.10911200
0.12941200 0.12861100 0.11218600 0.11123900
0.13333300 0.13115600 0.11430300 0.11338300
0.13725500 0.13374900 0.11644100 0.11555100
0.14117600 0.13638600 0.11860300 0.11774700
0.14509800 0.13907000 0.12079100 0.11996900
0.14902000 0.14179500 0.12300700 0.12221300
0.15294100 0.14455300 0.12524900 0.12448300
0.15686300 0.14734800 0.12750600 0.12679000
0.16078400 0.15019200 0.12977800 0.12913900
0.16470600 0.15310500 0.13206900 0.13153300
0.16862700 0.15606300 0.13439100 0.13397100
0.17254900 0.15907300 0.13675200 0.13645400
0.17647100 0.16213400 0.13915800 0.13897700
0.18039200 0.16525000 0.14161500 0.14153900
0.18431400 0.16842800 0.14412400 0.14414100
0.18823500 0.17163900 0.14668900 0.14678900
0.19215700 0.17486500 0.14931300 0.14947800
0.19607800 0.17810400 0.15198200 0.15221200
0.20000000 0.18137300 0.15467800 0.15498800
0.20392200 0.18468000 0.15740200 0.15780700
0.20784300 0.18801500 0.16015900 0.16066000
0.21176500 0.19133300 0.16296400 0.16353800
0.21568600 0.19464500 0.16582000 0.16644400
0.21960800 0.19797500 0.16870600 0.16938700
0.22352900 0.20132500 0.17160300 0.17237300
0.22745100 0.20469800 0.17453600 0.17537600
0.23137300 0.20810500 0.17749800 0.17840600
0.23529400 0.21156500 0.18049100 0.18147200
0.23921600 0.21503200 0.18351800 0.18458000
0.24313700 0.21847400 0.18659300 0.18773100
0.24705900 0.22189100 0.18971100 0.19093600
0.25098000 0.22527600 0.19282800 0.19416800
0.25490200 0.22865800 0.19594500 0.19742300
0.25882400 0.23203400 0.19906700 0.20070100
0.26274500 0.23541700 0.20219800 0.20400500
0.26666700 0.23880200 0.20536500 0.20734100
0.27058800 0.24215200 0.20857000 0.21070500
0.27451000 0.24545000 0.21181500 0.21406600
0.27843100 0.24867900 0.21506500 0.21740300
0.28235300 0.25187400 0.21827400 0.22072700
0.28627500 0.25503800 0.22143900 0.22403000
0.29019600 0.25816000 0.22459300 0.22730800
0.29411800 0.26123400 0.22774100 0.23055900
0.29803900 0.26426800 0.23086300 0.23380100
0.30196100 0.26726700 0.23395600 0.23705300
0.30588200 0.27023800 0.23702000 0.24030700
0.30980400 0.27318900 0.24005400 0.24352400
0.31372500 0.27615000 0.24306500 0.24670100
0.31764700 0.27915400 0.24607100 0.24984300
0.32156900 0.28218800 0.24910700 0.25295000
0.32549000 0.28521200 0.25215800 0.25602300
0.32941200 0.28821700 0.25517800 0.25908700
0.33333300 0.29120200 0.25815700 0.26214300
0.33725500 0.29417200 0.26110200 0.26520500
0.34117600 0.29712100 0.26400900 0.26827800
0.34509800 0.30006400 0.26689000 0.27134300
0.34902000 0.30300200 0.26975300 0.27438700
0.35294100 0.30590200 0.27258100 0.27739700
0.35686300 0.30878800 0.27537700 0.28038900
0.36078400 0.31169800 0.27818500 0.28338400
0.36470600 0.31462700 0.28100900 0.28638300
0.36862700 0.31757500 0.28384900 0.28939100
0.37254900 0.32054400 0.28671400 0.29238800
0.37647100 0.32354300 0.28961000 0.29538200
0.38039200 0.32658400 0.29254500 0.29837600
0.38431400 0.32967700 0.29552200 0.30136900
0.38823500 0.33281700 0.29851300 0.30435800
0.39215700 0.33593800 0.30146900 0.30734500
0.39607800 0.33899800 0.30436400 0.31033400
0.40000000 0.34201100 0.30721100 0.31335900
0.40392200 0.34499300 0.31002400 0.31641200
0.40784300 0.34795800 0.31280900 0.31946700
0.41176500 0.35091300 0.31558300 0.32252200
0.41568600 0.35390100 0.31837700 0.32557400
0.41960800 0.35692800 0.32117100 0.32862700
0.42352900 0.35998200 0.32396500 0.33168300
0.42745100 0.36306100 0.32677300 0.33473200
0.43137300 0.36617500 0.32959700 0.33777700
0.43529400 0.36933200 0.33240900 0.34082700
0.43921600 0.37249500 0.33520000 0.34387000
0.44313700 0.37564000 0.33799300 0.34688300
0.44705900 0.37879100 0.34080300 0.34988300
0.45098000 0.38195800 0.34362300 0.35290000
0.45490200 0.38512700 0.34643800 0.35593000
0.45882400 0.38828800 0.34925100 0.35897100
0.46274500 0.39144700 0.35205100 0.36202100
0.46666700 0.39459400 0.35484000 0.36508900
0.47058800 0.39772800 0.35761500 0.36818500
0.47451000 0.40084500 0.36037200 0.37132200
0.47843100 0.40394000 0.36311100 0.37450400
0.48235300 0.40701400 0.36583300 0.37770700
0.48627500 0.41006900 0.36856400 0.38087200
0.49019600 0.41313500 0.37134400 0.38399600
0.49411800 0.41627300 0.37414300 0.38709500
0.49803900 0.41943800 0.37693000 0.39018300
0.50196100 0.42258700 0.37970500 0.39327100
0.50588200 0.42572100 0.38246900 0.39635900
0.50980400 0.42883900 0.38522500 0.39945400
0.51372500 0.43194600 0.38797400 0.40258200
0.51764700 0.43504400 0.39072000 0.40573600
0.52156900 0.43813900 0.39346300 0.40891400
0.52549000 0.44123400 0.39621100 0.41212000
0.52941200 0.44433000 0.39896000 0.41537500
0.53333300 0.44742800 0.40172500 0.41867500
0.53725500 0.45054000 0.40450800 0.42197100
0.54117600 0.45365900 0.40728800 0.42526100
0.54509800 0.45675100 0.41007300 0.42857400
0.54902000 0.45982800 0.41289600 0.43192000
0.55294100 0.46293600 0.41576000 0.43529200
0.55686300 0.46607400 0.41868000 0.43867700
0.56078400 0.46924900 0.42166300 0.44208900
0.56470600 0.47247500 0.42468700 0.44551600
0.56862700 0.47573500 0.42768000 0.44896100
0.57254900 0.47896000 0.43065100 0.45242300
0.57647100 0.48214200 0.43361700 0.45589800
0.58039200 0.48529800 0.43658200 0.45938600
0.58431400 0.48844100 0.43953200 0.46288600
0.58823500 0.49156800 0.44247800 0.46640100
0.59215700 0.49468200 0.44543800 0.46996400
0.59607800 0.49780500 0.44838200 0.47355600
0.60000000 0.50091800 0.45131000 0.47714100
0.60392200 0.50400800 0.45422500 0.48071900
0.60784300 0.50707300 0.45711900 0.48429000
0.61176500 0.51011800 0.45997300 0.48785600
0.61568600 0.51312400 0.46280000 0.49141900
0.61960800 0.51608600 0.46563100 0.49498200
0.62352900 0.51903800 0.46846700 0.49854300
0.62745100 0.52200600 0.47130400 0.50210900
0.63137300 0.52498900 0.47416500 0.50567000
0.63529400 0.52798800 0.47706300 0.50924200
0.63921600 0.53102100 0.48002400 0.51282900
0.64313700 0.53408900 0.48307600 0.51638900
0.64705900 0.53720900 0.48623900 0.51992300
0.65098000 0.54039900 0.48952900 0.52346600
0.65490200 0.54368500 0.49294800 0.52702600
0.65882400 0.54708600 0.49636300 0.53061100
0.66274500 0.55061000 0.49967500 0.53424000
0.66666700 0.55422500 0.50288800 0.53790400
0.67058800 0.55775100 0.50601200 0.54154500
0.67451000 0.56115600 0.50906600 0.54516600
0.67843100 0.56444800 0.51207100 0.54879200
0.68235300 0.56765300 0.51503900 0.55243400
0.68627500 0.57079100 0.51798200 0.55608300
0.69019600 0.57387400 0.52091900 0.55973400
0.69411800 0.57691300 0.52384500 0.56339000
0.69803900 0.57991100 0.52675500 0.56703700
0.70196100 0.58289700 0.52968700 0.57066700
0.70588200 0.58587400 0.53263500 0.57428200
0.70980400 0.58883500 0.53559900 0.57788900
0.71372500 0.59180800 0.53858300 0.58146000
0.71764700 0.59481000 0.54156500 0.58499900
0.72156900 0.59783100 0.54454900 0.58855000
0.72549000 0.60087200 0.54753100 0.59212200
0.72941200 0.60393300 0.55050800 0.59571300
0.73333300 0.60698100 0.55348000 0.59934700
0.73725500 0.61002400 0.55645800 0.60302900
0.74117600 0.61306500 0.55941800 0.60676100
0.74509800 0.61610500 0.56234900 0.61056700
0.74902000 0.61914200 0.56524900 0.61447600
0.75294100 0.62218700 0.56812600 0.61851600
0.75686300 0.62524000 0.57097700 0.62269800
0.76078400 0.62827800 0.57378400 0.62697900
0.76470600 0.63129800 0.57656400 0.63115700
0.76862700 0.63429800 0.57934200 0.63521100
0.77254900 0.63728600 0.58212500 0.63915700
0.77647100 0.64024600 0.58493300 0.64303100
0.78039200 0.64317600 0.58778300 0.64686600
0.78431400 0.64610900 0.59068500 0.65068200
0.78823500 0.64906900 0.59359700 0.65448600
0.79215700 0.65205500 0.59645800 0.65829700
0.79607800 0.65508300 0.59927200 0.66214400
0.80000000 0.65816100 0.60205500 0.66602200
0.80392200 0.66130100 0.60482000 0.66995800
0.80784300 0.66448200 0.60759000 0.67396900
0.81176500 0.66762000 0.61036400 0.67804900
0.81568600 0.67070500 0.61313000 0.68220600
0.81960800 0.67375300 0.61589900 0.68639600
0.82352900 0.67677900 0.61868800 0.69062300
0.82745100 0.67979400 0.62149200 0.69489000
0.83137300 0.68280800 0.62430900 0.69918900
0.83529400 0.68581700 0.62713800 0.70352200
0.83921600 0.68881600 0.62999300 0.70788000
0.84313700 0.69182600 0.63288400 0.71223800
0.84705900 0.69485700 0.63577700 0.71659700
0.85098000 0.69791100 0.63861300 0.72097400
0.85490200 0.70099100 0.64139400 0.72534600
0.85882400 0.70410700 0.64412900 0.72971600
0.86274500 0.70727400 0.64681900 0.73414300
0.86666700 0.71049900 0.64949700 0.73863400
0.87058800 0.71371200 0.65217000 0.74321100
0.87451000 0.71688600 0.65485000 0.74791800
0.87843100 0.72004200 0.65754600 0.75271600
0.88235300 0.72318400 0.66022800 0.75746300
0.88627500 0.72633900 0.66289000 0.76218100
0.89019600 0.72954200 0.66553800 0.76691900
0.89411800 0.73279200 0.66819100 0.77172300
0.89803900 0.73610800 0.67085600 0.77660200
0.90196100 0.73944400 0.67352900 0.78155000
0.90588200 0.74276800 0.67619100 0.78657100
0.90980400 0.74608800 0.67884600 0.79167200
0.91372500 0.74943600 0.68150500 0.79686100
0.91764700 0.75282800 0.68415700 0.80217800
0.92156900 0.75623200 0.68678800 0.80757600
0.92549000 0.75963100 0.68941800 0.81296300
0.92941200 0.76304700 0.69204400 0.81838000
0.93333300 0.76648300 0.69466800 0.82389000
0.93725500 0.76991600 0.69729100 0.82955100
0.94117600 0.77336800 0.69990400 0.83538500
0.94509800 0.77683500 0.70250500 0.84125400
0.94902000 0.78032400 0.70509400 0.84721200
0.95294100 0.78382600 0.70767100 0.85335000
0.95686300 0.78734400 0.71023700 0.85957400
0.96078400 0.79088300 0.71280000 0.86592300
0.96470600 0.79444600 0.71536100 0.87238200
0.96862700 0.79803200 0.71792300 0.87895500
0.97254900 0.80164300 0.72048500 0.88564900
0.97647100 0.80527700 0.72304800 0.89246700
0.98039200 0.80893500 0.72561100 0.89940300
0.98431400 0.81261700 0.72817600 0.90646800
0.98823500 0.81632200 0.73074000 0.91367000
0.99215700 0.82005100 0.73330600 0.92101500
0.99607800 0.82380500 0.73587200 0.92850800
1.00000000 0.82758400 0.73843800 0.93615300
END_DATA
