CTI3   

DESCRIPTOR "Argyll Calibration Target chart information 3"
ORIGINATOR "Argyll dispread"
CREATED "Tue May 26 13:21:48 2020"
DEVICE_CLASS "DISPLAY"
SINGLE_DIM_STEPS "21"
COMP_GREY_STEPS "61"
DARK_REGION_EMPHASIS "1.6"
COLOR_REP "RGB_XYZ"
TARGET_INSTRUMENT "X-Rite i1 DisplayPro, ColorMunki Display"
DISPLAY_TYPE_REFRESH "NO"
DISPLAY_TYPE_BASE_ID "1"
INSTRUMENT_TYPE_SPECTRAL "NO"
LUMINANCE_XYZ_CDM2 "276.065723 290.584811 314.521394"
NORMALIZED_TO_Y_100 "YES"
VIDEO_LUT_CALIBRATION_POSSIBLE "YES"

BEGIN_ARGYLL_COLPROF_ARGS
-v -qh -aX -bn -C "No copyright. Created with DisplayCAL 3.8.9.3 and ArgyllCMS 2.1.2" -M "DELL U2718Q" -A "Dell, Inc."
END_ARGYLL_COLPROF_ARGS

OBSERVER "1931_2"
USE_BLACK_POINT_COMPENSATION "NO"
BLACK_POINT_CORRECTION "0.0"
HIRES_B2A "YES"
HIRES_B2A_SIZE "-1"
SMOOTH_B2A "YES"
PATCH_SEQUENCE "OPTIMIZE_DISPLAY_RESPONSE_DELAY"

NUMBER_OF_FIELDS 7
BEGIN_DATA_FORMAT
SAMPLE_ID RGB_R RGB_G RGB_B XYZ_X XYZ_Y XYZ_Z
END_DATA_FORMAT

NUMBER_OF_SETS 588
BEGIN_DATA
1 100.0000 100.0000 100.0000 95.00349 100.00000 108.2374
2 1.960800 1.960800 1.960800 0.234893 0.245823 0.286538
3 3.921600 3.921600 3.921600 0.365391 0.384455 0.444453
4 5.882400 5.882400 5.882400 0.535982 0.556292 0.649954
5 9.803900 9.803900 9.803900 1.001200 1.029323 1.222867
6 13.72600 13.72600 13.72600 1.632900 1.714577 1.997125
7 17.64700 17.64700 17.64700 2.498192 2.623507 2.994399
8 21.56900 21.56900 21.56900 3.650296 3.870682 4.234996
9 25.49000 25.49000 25.49000 5.146082 5.377085 5.871350
10 29.41200 29.41200 29.41200 6.755932 7.139769 7.766088
11 33.33300 33.33300 33.33300 8.828202 9.269546 10.04125
12 37.25500 37.25500 37.25500 10.87584 11.38383 12.10648
13 41.17600 41.17600 41.17600 13.40065 14.07138 15.29630
14 45.09800 45.09800 45.09800 16.36940 17.21356 18.70321
15 49.02000 49.02000 49.02000 19.58764 20.54389 22.30560
16 52.94100 52.94100 52.94100 22.87397 24.14210 26.43445
17 56.86300 56.86300 56.86300 26.80118 28.31194 30.49773
18 60.78400 60.78400 60.78400 31.31120 32.94492 35.67125
19 64.70600 64.70600 64.70600 35.66760 37.48363 41.04167
20 68.62700 68.62700 68.62700 40.92797 42.92144 47.06713
21 72.54900 72.54900 72.54900 46.34385 48.69391 53.16120
22 76.47100 76.47100 76.47100 51.91418 54.64484 59.38667
23 80.39200 80.39200 80.39200 58.17546 61.23183 66.39675
24 84.31400 84.31400 84.31400 64.35165 67.71466 73.21027
25 88.23500 88.23500 88.23500 71.41872 75.14429 81.13745
26 92.15700 92.15700 92.15700 78.14291 82.75534 89.53055
27 96.07800 96.07800 96.07800 86.10075 90.88485 98.69800
28 0.000000 35.66440 19.16970 4.353334 7.725641 4.491780
29 0.000000 35.41510 33.12130 5.281144 7.942731 9.845307
30 0.000000 60.21590 72.48900 20.25720 26.53563 50.72369
31 0.000000 74.01180 80.27330 28.82926 40.59496 63.84372
32 77.72720 77.44710 0.000000 43.47247 52.06627 6.807832
33 100.0000 88.07020 21.53500 69.04533 75.40034 14.89324
34 76.64540 0.000000 19.68840 23.68332 12.43924 4.476314
35 86.32490 0.000000 39.35890 32.45236 16.84794 13.74962
36 86.99100 39.31470 64.76230 41.84704 28.10781 38.90928
37 100.0000 61.23170 79.72490 64.81647 50.43326 62.28142
38 10.20410 0.000000 0.000000 0.558130 0.364696 0.232674
39 13.15790 0.000000 0.000000 0.748547 0.462517 0.245324
40 16.30430 0.000000 0.000000 1.064721 0.625388 0.261271
41 19.66290 0.000000 0.000000 1.411158 0.806116 0.276831
42 23.25580 0.000000 0.000000 1.930750 1.078411 0.297481
43 27.10840 0.000000 0.000000 2.586400 1.423274 0.316839
44 31.25000 0.000000 0.000000 3.485291 1.892963 0.346933
45 35.71430 0.000000 0.000000 4.454393 2.404217 0.383757
46 40.54050 0.000000 0.000000 5.954433 3.191173 0.433897
47 45.77470 0.000000 0.000000 7.699124 4.103281 0.480821
48 51.47060 0.000000 0.000000 9.744195 5.174052 0.550211
49 60.95320 0.000000 0.000000 13.93707 7.377564 0.695216
50 64.51610 0.000000 0.000000 15.89763 8.408406 0.768183
51 72.03390 0.000000 0.000000 20.17012 10.65646 0.917016
52 80.35710 0.000000 0.000000 25.66593 13.55582 1.147171
53 89.62260 0.000000 0.000000 32.75551 17.30728 1.426650
54 100.0000 29.24320 40.11290 47.60044 28.83866 16.00847
55 100.0000 29.04640 82.46560 56.77768 32.33716 64.78175
56 0.000000 4.807700 0.000000 0.235788 0.354671 0.241126
57 0.000000 7.425700 0.000000 0.333534 0.544576 0.288814
58 0.000000 10.20410 0.000000 0.471226 0.808418 0.334133
59 0.000000 13.15790 0.000000 0.660219 1.188814 0.388931
60 0.000000 16.30430 0.000000 0.924287 1.734886 0.449143
61 0.000000 19.66290 0.000000 1.231592 2.368388 0.515658
62 23.43430 27.10250 0.000000 3.913061 5.189319 0.801183
63 2.336400 0.000000 0.000000 0.169931 0.142896 0.128910
64 37.41950 28.17970 0.000000 7.157016 7.166348 0.978340
65 71.76240 58.40950 0.000000 30.42288 31.67523 3.828548
66 75.63180 73.43040 44.20940 43.07702 48.49419 22.49026
67 100.0000 100.0000 100.0000 95.01440 100.0257 108.2376
68 0.000000 100.0000 29.06220 36.35149 71.59335 17.81454
69 0.000000 100.0000 49.42020 38.91155 72.63518 31.52719
70 31.11570 100.0000 60.63860 44.36619 75.22673 42.60555
71 88.92360 100.0000 92.61510 82.06110 93.69687 91.71746
72 52.02090 16.07570 26.01800 11.87968 7.417132 5.956663
73 51.97330 27.22840 55.68850 17.01174 11.52330 27.17279
74 66.25240 32.48880 68.56750 27.70718 18.27337 43.66918
75 0.000000 0.000000 2.336400 0.131425 0.120747 0.258450
76 0.000000 0.000000 4.807700 0.160506 0.132743 0.412412
77 0.000000 0.000000 7.425700 0.208856 0.152673 0.664161
78 0.000000 0.000000 10.20410 0.278493 0.181003 1.028760
79 0.000000 0.000000 13.15790 0.390256 0.226896 1.597870
80 0.000000 0.000000 16.30430 0.514173 0.277581 2.232298
81 0.000000 0.000000 19.66290 0.667516 0.340401 3.034509
82 0.000000 0.000000 23.25580 0.925252 0.446423 4.388383
83 0.000000 0.000000 27.10840 1.200100 0.559036 5.828506
84 0.000000 0.000000 31.25000 1.538734 0.698060 7.617158
85 0.000000 0.000000 35.71430 2.014173 0.892685 10.11234
86 0.000000 0.000000 40.54050 2.586437 1.120944 13.08059
87 0.000000 0.000000 45.77470 3.368679 1.447546 17.20091
88 0.000000 0.000000 51.47060 4.257383 1.810516 21.83968
89 0.000000 0.000000 57.69230 5.369809 2.266910 27.65233
90 0.000000 0.000000 64.51610 7.022897 2.943728 36.27197
91 0.000000 0.000000 72.03390 8.959919 3.735914 46.39303
92 0.000000 0.000000 80.35710 11.36507 4.731418 58.99549
93 0.000000 100.0000 85.02720 47.27171 76.05912 75.92982
94 32.42370 100.0000 90.01860 52.93485 78.77068 86.15678
95 0.764500 0.764500 0.764500 0.169462 0.176137 0.207885
96 1.543200 1.543200 1.543200 0.208742 0.211550 0.252140
97 2.336400 2.336400 2.336400 0.252856 0.264419 0.310111
98 3.144700 3.144700 3.144700 0.306440 0.312650 0.377674
99 3.968300 3.968300 3.968300 0.364835 0.383818 0.445087
100 4.807700 4.807700 4.807700 0.422843 0.445353 0.521550
101 5.663400 5.663400 5.663400 0.505053 0.516734 0.635494
102 6.535900 6.535900 6.535900 0.607107 0.627952 0.738169
103 7.425700 7.425700 7.425700 0.691985 0.718458 0.849132
104 8.333300 8.333300 8.333300 0.794852 0.815006 0.952452
105 9.259300 9.259300 9.259300 0.947956 0.974824 1.149264
106 10.20410 10.20410 10.20410 1.064683 1.095971 1.306141
107 11.16840 11.16840 11.16840 1.177755 1.221312 1.423816
108 12.15280 12.15280 12.15280 1.381906 1.453756 1.713887
109 13.15790 13.15790 13.15790 1.558770 1.622337 1.992618
110 14.18440 14.18440 14.18440 1.718876 1.796944 2.105701
111 15.23300 15.23300 15.23300 1.947085 2.066014 2.348430
112 16.30430 16.30430 16.30430 2.262629 2.382789 2.702536
113 17.39930 17.39930 17.39930 2.417028 2.529152 2.845280
114 18.51850 18.51850 18.51850 2.748321 2.879583 3.255280
115 19.66290 19.66290 19.66290 3.062001 3.258187 3.555102
116 20.83330 20.83330 20.83330 3.454728 3.605223 4.031054
117 22.03070 22.03070 22.03070 3.829980 4.033201 4.434521
118 23.25580 23.25580 23.25580 4.225406 4.430206 5.048549
119 24.50980 24.50980 24.50980 4.566877 4.796634 5.288060
120 25.79360 25.79360 25.79360 5.220963 5.540926 5.955902
121 27.10840 27.10840 27.10840 5.667544 5.985559 6.545453
122 28.45530 28.45530 28.45530 6.336348 6.695137 7.271007
123 29.83540 29.83540 29.83540 7.016061 7.345790 8.095604
124 31.25000 31.25000 31.25000 7.629341 8.034364 8.649970
125 32.70040 32.70040 32.70040 8.366867 8.773650 9.448666
126 34.18800 34.18800 34.18800 8.993010 9.441313 10.35364
127 35.71430 35.71430 35.71430 9.887071 10.46469 11.32779
128 37.28070 37.28070 37.28070 10.88085 11.38838 12.11448
129 41.70490 53.41040 48.88100 18.25984 21.82922 22.74876
130 63.01980 54.43080 70.87300 32.33929 29.27262 47.83804
131 0.000000 0.000000 0.000000 0.104847 0.109858 0.118495
132 0.000000 2.336400 0.000000 0.164596 0.221336 0.179053
133 0.000000 45.77470 0.000000 6.236216 12.65402 1.828718
134 0.000000 53.91680 22.98320 9.466213 17.73435 7.271011
135 26.85180 76.23990 48.73350 24.92170 40.66098 25.77557
136 61.37830 78.33540 73.78640 43.54696 51.77864 55.17356
137 42.23740 42.23740 42.23740 14.27740 15.03823 16.41703
138 43.98150 43.98150 43.98150 15.42535 16.14044 17.33362
139 57.69230 57.69230 57.69230 27.61491 29.15541 31.55798
140 59.89580 59.89580 59.89580 30.57289 32.11685 35.02877
141 62.16930 62.16930 62.16930 33.34481 35.01491 38.10894
142 64.51610 64.51610 64.51610 35.70160 37.48448 41.05746
143 66.93990 66.93990 66.93990 38.76556 40.69234 44.66157
144 69.44440 69.44440 69.44440 41.97617 44.06378 48.26621
145 72.03390 72.03390 72.03390 45.75231 48.08621 52.39633
146 74.71260 74.71260 74.71260 49.49186 52.35855 56.46581
147 77.48540 77.48540 77.48540 53.84634 56.66515 61.18048
148 80.35710 80.35710 80.35710 58.15698 61.21882 66.42317
149 83.33330 83.33330 83.33330 62.31050 65.72735 70.88271
150 86.41970 86.41970 86.41970 67.83850 71.45753 76.97678
151 89.62260 89.62260 89.62260 73.85130 77.80556 84.51264
152 92.94870 92.94870 92.94870 79.94881 84.31774 91.13435
153 96.40520 96.40520 96.40520 87.35330 92.00673 99.65249
154 17.06250 0.000000 26.68250 2.184263 1.070202 5.715075
155 18.48030 14.73750 25.90510 2.909187 2.440562 5.609682
156 42.08510 28.69030 28.80360 9.669944 8.427394 7.354335
157 70.19830 35.73920 44.02410 25.60768 18.72678 17.28675
158 100.0000 51.99880 52.87840 55.08610 41.01109 27.73997
159 42.68810 19.00850 0.000000 7.554360 5.617679 0.762919
160 60.16180 25.71290 0.000000 15.59064 11.16496 1.219865
161 62.56660 58.55190 35.44540 27.40212 29.92089 14.17733
162 34.31870 100.0000 0.000000 39.47309 73.34866 10.90986
163 58.07780 100.0000 0.000000 47.73016 77.59813 11.53186
164 0.000000 0.000000 89.62260 14.42279 5.971445 74.92751
165 0.000000 0.000000 100.0000 18.52499 7.614393 96.34404
166 82.85680 80.65730 100.0000 66.80917 65.31080 103.8346
167 0.000000 0.000000 0.000000 0.104875 0.109942 0.118923
168 0.000000 24.14090 100.0000 20.28705 10.89674 97.81108
169 0.000000 38.49620 100.0000 22.83177 16.18840 98.31888
170 26.32130 49.12500 100.0000 27.50764 22.85238 99.07876
171 33.08180 62.01710 100.0000 34.01751 33.66778 100.7306
172 0.000000 24.83120 65.31010 9.007911 6.503534 38.32908
173 0.000000 35.39010 82.15780 15.46340 12.11339 63.17714
174 34.92230 35.47640 100.0000 26.21001 16.90453 98.93326
175 60.14610 68.56030 100.0000 46.77360 44.80122 101.4420
176 100.0000 87.50860 100.0000 85.94699 81.50634 105.3183
177 15.92040 9.022000 0.000000 1.284482 1.145883 0.368267
178 27.01230 15.25180 0.000000 3.270220 2.818620 0.522230
179 31.74690 75.25220 0.000000 21.95812 39.21284 5.519032
180 55.71570 78.36890 0.000000 31.36336 46.86141 6.383971
181 13.75000 0.000000 11.65910 0.976243 0.534659 1.317089
182 34.26700 0.000000 33.63250 5.790058 2.896604 9.381939
183 36.10270 56.02690 44.02230 16.83838 22.69305 18.66473
184 50.57790 71.31680 45.81780 28.95439 39.60922 22.94936
185 100.0000 76.41780 86.89890 74.48666 66.27839 77.04968
186 57.69230 0.000000 0.000000 12.24708 6.494119 0.651605
187 69.19380 23.08030 12.05080 20.22093 13.04805 2.994106
188 81.81390 41.61160 12.78300 32.29037 24.60328 5.010346
189 100.0000 79.15700 0.000000 62.78493 64.14613 8.153215
190 100.0000 100.0000 0.000000 76.68904 92.55318 12.89994
191 31.95540 56.55150 0.000000 13.08765 21.33142 2.872884
192 53.44880 59.70990 0.000000 21.07144 27.61414 3.528048
193 100.0000 60.80780 41.81680 56.53744 46.77846 19.96651
194 100.0000 71.46910 60.10680 64.61606 58.07447 38.14895
195 100.0000 100.0000 63.18580 83.34447 95.29010 47.57865
196 78.93930 27.24920 0.000000 27.00144 17.44009 1.710040
197 100.0000 47.84730 0.000000 49.29464 36.51751 4.062271
198 100.0000 64.16110 0.000000 55.16133 48.58252 5.682395
199 33.86590 33.06940 21.06520 7.838164 8.698885 5.097384
200 39.19420 34.61830 29.13270 10.01834 10.16391 7.867210
201 38.88890 38.88890 38.88890 11.96808 12.55551 13.59837
202 52.12320 86.09430 41.90650 37.40998 56.62109 22.64808
203 57.86850 100.0000 65.00440 54.59239 80.40202 48.42224
204 100.0000 100.0000 85.78340 89.59437 97.82829 80.22642
205 27.29840 49.75180 26.90400 10.98388 16.63145 8.343673
206 100.0000 75.00440 29.37660 61.93057 60.03882 14.94014
207 100.0000 75.57700 48.57140 64.65751 61.58532 27.93930
208 0.000000 0.000000 0.000000 0.104884 0.110046 0.118886
209 0.000000 13.58970 36.16900 2.671158 2.073885 10.81677
210 37.02480 28.35410 37.99610 9.275611 8.044301 12.29467
211 0.000000 89.62260 0.000000 27.09479 55.07957 8.097781
212 0.000000 100.0000 0.000000 35.01952 71.02535 10.74316
213 0.000000 100.0000 100.0000 53.00168 78.31876 106.1610
214 0.000000 24.83210 38.98490 4.100682 4.499224 12.76766
215 0.000000 28.07850 53.91230 7.001530 6.599769 25.21570
216 31.27450 34.18790 53.77760 11.33837 10.37506 25.60522
217 36.15970 58.54240 58.06670 20.20748 25.60070 31.74234
218 39.10960 83.27980 100.0000 46.43446 56.57339 103.2800
219 62.80500 91.76970 100.0000 61.33377 72.70938 104.8929
220 79.31710 100.0000 100.0000 77.69645 91.06728 107.0440
221 31.81460 0.000000 12.63880 3.853523 2.050460 1.708723
222 47.70350 0.000000 27.26770 9.386927 4.849321 6.456486
223 46.79880 0.000000 49.35400 11.58973 5.676824 20.81354
224 51.47060 51.47060 51.47060 21.77811 22.92924 24.74089
225 53.48260 53.48260 53.48260 23.30888 24.53386 26.96809
226 55.55560 55.55560 55.55560 25.57972 27.02601 29.46048
227 28.26180 21.87020 57.52540 9.395396 6.438390 28.57725
228 41.37790 32.29750 56.82920 14.19242 11.25647 28.32324
229 41.41660 0.000000 100.0000 24.53447 10.70550 97.61210
230 72.44870 0.000000 100.0000 38.93001 18.23840 97.84552
231 0.000000 27.10840 0.000000 2.163069 4.286476 0.742416
232 0.000000 31.25000 0.000000 2.864524 5.716196 0.933722
233 0.000000 35.71430 0.000000 3.702310 7.464179 1.167440
234 0.000000 40.54050 0.000000 4.716601 9.492864 1.431805
235 47.61910 47.61910 47.61910 18.32776 19.23903 21.00377
236 49.51690 49.51690 49.51690 19.82604 20.83855 22.83897
237 68.74580 70.58820 52.67970 38.55530 43.85658 28.76002
238 89.15430 70.61370 54.38710 53.12995 51.35405 31.27915
239 61.59040 100.0000 28.03170 50.63895 78.98928 18.17812
240 83.45150 100.0000 27.58620 64.10695 85.93992 18.61214
241 23.60400 39.22440 0.000000 6.316058 10.03368 1.436598
242 57.11870 39.13990 0.000000 16.54440 15.49810 1.863837
243 60.02880 39.43460 31.16910 19.60672 17.07323 9.737529
244 62.09410 39.80780 100.0000 37.94829 24.67106 99.34205
245 81.57160 49.60730 100.0000 51.94274 35.89319 100.2322
246 100.0000 72.67020 100.0000 77.67886 64.39326 103.2606
247 32.42810 43.49860 55.94260 14.30511 15.36385 27.99813
248 42.76970 57.63050 70.79150 24.97175 27.27496 47.91715
249 54.35800 100.0000 81.43510 57.06857 81.21669 70.96154
250 0.000000 23.25580 0.000000 1.623972 3.177161 0.620873
251 15.74180 27.91230 7.520600 3.203389 4.990750 1.450213
252 16.69510 29.23430 39.22260 5.813985 6.553809 12.96544
253 40.54050 40.54050 40.54050 13.00984 13.55022 14.84178
254 45.77470 45.77470 45.77470 17.18495 18.03811 19.69304
255 68.91380 48.50290 51.16540 29.56966 25.73763 24.93052
256 100.0000 70.49100 72.05660 67.16039 58.46031 53.35505
257 100.0000 0.000000 0.000000 42.41511 22.40513 1.851804
258 100.0000 0.000000 21.50800 43.30038 22.76900 6.459367
259 100.0000 0.000000 37.26040 44.54964 23.26889 13.14928
260 100.0000 0.000000 52.37300 46.83810 24.20307 25.16384
261 100.0000 28.92290 53.47340 49.56458 29.53001 26.71589
262 100.0000 32.50540 67.66790 53.40107 32.02702 43.96513
263 100.0000 29.20260 0.000000 44.96002 27.65010 2.701627
264 100.0000 44.19800 19.41910 49.09276 34.84632 7.823254
265 100.0000 43.98350 36.16260 50.24841 35.10017 14.43816
266 100.0000 100.0000 35.31040 78.76450 93.41099 23.68022
267 77.26620 100.0000 63.26640 65.07520 85.84349 46.65291
268 88.94980 100.0000 76.00880 76.96572 91.63936 64.35763
269 0.000000 51.47060 0.000000 7.841605 15.93008 2.280371
270 0.000000 57.69230 0.000000 10.05260 20.43928 2.893783
271 0.000000 64.51610 0.000000 13.04008 26.50222 3.715914
272 0.000000 77.25550 43.16660 22.23905 40.38438 21.29926
273 34.86680 82.99720 42.69120 30.12214 49.82899 22.51461
274 37.18250 100.0000 45.73160 43.43883 75.01793 29.20893
275 62.13030 100.0000 47.62940 53.33824 80.11286 30.90898
276 0.000000 72.03390 0.000000 16.66586 33.93023 4.837156
277 0.000000 80.35710 0.000000 21.11502 42.94952 6.192007
278 0.000000 83.74570 77.94750 33.58757 51.49185 61.53419
279 29.82310 90.99150 100.0000 49.14868 65.64853 104.6336
280 0.000000 39.75900 48.26310 8.302320 10.85642 20.75464
281 0.000000 41.92570 60.86420 11.22571 12.93793 33.36738
282 0.000000 52.49940 100.0000 26.74004 24.35713 99.05038
283 0.000000 65.11390 100.0000 31.69634 34.45822 100.6486
284 100.0000 0.000000 65.80480 49.66609 25.32967 39.98564
285 100.0000 0.000000 82.46290 54.26777 27.22419 64.08021
286 100.0000 0.000000 100.0000 60.91975 29.85955 98.94710
287 100.0000 32.21010 100.0000 64.01732 36.20508 99.72577
288 100.0000 54.74340 100.0000 69.78454 48.20144 100.8856
289 0.000000 100.0000 67.72110 42.59896 74.13290 51.31259
290 31.81150 100.0000 75.11790 48.11441 76.73562 61.67079
291 47.76460 100.0000 100.0000 61.09071 82.50139 106.2384
292 4.807700 0.000000 0.000000 0.242390 0.180249 0.142349
293 7.425700 0.000000 0.000000 0.376883 0.259999 0.185400
294 0.000000 11.74650 13.00910 0.834930 1.127062 1.796324
295 0.000000 22.94710 16.40900 2.036919 3.349210 2.852040
296 0.000000 24.31020 28.82340 2.968242 3.942080 7.058002
297 0.000000 56.75570 80.63490 20.94573 24.39282 61.66460
298 0.000000 76.60450 100.0000 37.17110 45.78962 101.9979
299 0.000000 87.07460 100.0000 43.54631 58.76958 104.0805
300 24.05950 0.000000 48.71200 5.682442 2.585632 19.87061
301 40.37640 0.000000 62.94810 12.40218 5.783976 35.38742
302 57.71430 0.000000 43.23270 15.14796 7.657235 15.82188
303 76.28510 0.000000 61.15330 29.21991 14.67149 33.44831
304 78.82320 0.000000 83.42800 36.86048 17.96541 65.04108
305 37.61170 17.26680 66.22020 13.18851 7.370673 39.26074
306 47.04870 41.35750 85.18420 25.18943 19.10616 67.26619
307 50.43330 52.49200 100.0000 36.02557 29.15205 99.90456
308 0.000000 61.83350 41.33740 14.58143 25.33767 17.50107
309 0.000000 64.25320 57.54070 18.24214 28.41098 31.88502
310 17.47840 71.80910 57.94670 23.15940 36.40618 33.71000
311 19.36230 87.59100 74.63900 36.22703 56.41724 56.93308
312 9.212100 17.67800 9.704500 1.521729 2.156041 1.409013
313 8.824900 21.59760 20.92380 2.449976 3.259496 4.080036
314 26.29440 35.44810 23.77800 6.792457 8.812733 5.801459
315 74.01080 50.54220 30.73200 30.42320 27.27323 11.09237
316 91.11210 52.97230 43.91380 45.25230 36.08569 19.95944
317 52.83610 15.64320 34.89810 12.76551 7.714114 10.56573
318 64.94560 19.58060 44.80200 20.43908 12.28097 17.19209
319 64.40990 30.86430 53.22100 22.88248 15.63404 25.32083
320 20.45230 23.67320 12.72470 3.396630 4.143286 2.191795
321 28.34290 24.11780 18.33960 4.997713 5.062975 3.602482
322 36.16760 56.42920 22.89720 14.95454 22.21790 7.781941
323 50.61210 60.78090 29.63480 22.12733 28.84921 11.27169
324 27.28180 37.41180 13.57250 6.843032 9.500405 3.175512
325 39.49140 43.55770 24.86710 12.13765 14.65399 7.092965
326 67.92310 66.47140 89.88700 45.85206 43.38700 80.37304
327 84.37350 68.61440 100.0000 61.64275 52.81120 101.7416
328 28.18190 0.000000 74.91140 12.21691 5.355517 50.49077
329 43.78670 14.88350 80.78600 18.70677 9.560805 59.35677
330 43.84800 29.60320 87.16700 22.30617 13.89902 70.03505
331 23.74190 26.36320 72.26280 12.69630 8.676851 46.87677
332 32.01080 59.58790 81.70670 25.81686 28.62728 63.55790
333 87.02440 68.88960 81.97720 57.09835 51.50329 66.73393
334 74.61830 0.000000 45.37040 24.82180 12.71647 17.98259
335 76.40610 22.46650 57.14060 29.80716 17.42718 28.97293
336 82.95980 36.35120 72.71270 40.33015 25.99125 49.88434
337 100.0000 48.81780 83.86080 61.75766 41.89306 68.33243
338 36.18210 68.60600 51.61680 23.71043 34.41960 27.12805
339 36.34390 68.96510 61.69530 25.98790 35.70710 37.51368
340 50.04000 84.31990 79.42070 43.36555 56.84750 64.35230
341 55.57670 90.38440 91.90440 53.20435 67.28109 86.87522
342 35.60830 23.42020 12.97110 6.289679 5.669682 2.429628
343 45.05510 23.91070 19.01170 9.531173 7.428863 3.974800
344 46.25450 37.08250 50.83380 15.73301 13.72180 23.30519
345 46.58160 46.91630 59.82950 20.20290 19.73814 33.27894
346 50.93920 72.57070 61.09670 32.42758 41.89673 37.64999
347 63.69000 82.27130 86.48380 50.42485 58.43897 75.84713
348 77.85610 88.62780 88.94640 64.01862 71.40520 81.80862
349 15.72600 5.973800 20.53200 1.722850 1.114426 3.540292
350 24.64950 7.272300 26.36290 3.419608 2.033815 5.740764
351 29.49200 17.55100 29.70410 5.286976 3.996420 7.715543
352 40.21530 51.39050 35.35790 15.60095 19.75513 12.86679
353 52.70250 56.83790 38.58560 22.10825 26.20900 15.63475
354 72.52950 58.99920 39.63290 33.62986 33.31043 17.21290
355 85.02970 77.65950 55.95470 53.63590 57.11149 33.46100
356 16.86790 37.51490 43.61850 8.010025 10.00262 16.75527
357 16.42800 37.14250 51.99970 9.264526 10.32915 24.06654
358 15.48590 50.32490 65.31040 15.44657 18.51725 40.06751
359 11.87650 71.97740 69.06460 25.32812 37.55848 47.43048
360 40.01460 84.69110 72.62060 38.35527 54.81772 54.38841
361 85.70530 87.66580 66.51370 63.05109 71.07093 48.46309
362 100.0000 89.23450 66.28920 76.28863 79.70623 48.60194
363 51.52820 0.000000 15.03940 10.08316 5.303496 2.477883
364 55.58320 15.11570 18.70930 12.66013 7.794819 4.000088
365 100.0000 26.35800 22.23690 45.46466 27.16860 7.440963
366 84.26000 17.01410 12.48470 29.86188 17.24389 3.541541
367 89.72450 23.23160 27.41800 35.71523 21.35097 8.407343
368 86.83260 14.23550 32.78540 32.86170 18.37624 10.64995
369 87.52050 13.59890 74.37390 41.06867 21.66001 51.76232
370 89.58030 15.76720 92.34600 48.96251 25.36912 82.24637
371 0.000000 11.86030 22.53700 1.307710 1.323408 4.273121
372 0.000000 14.11290 51.43660 4.928247 3.049816 22.44078
373 0.000000 52.81100 55.11890 13.16519 18.81592 28.07356
374 33.38710 63.29160 73.94970 25.82940 31.27586 53.46498
375 80.40920 69.71280 89.18690 55.05578 50.72174 79.17831
376 85.86430 80.16650 89.31930 64.69540 63.94542 81.54212
377 31.37470 41.74040 43.56440 11.36095 13.18310 17.21528
378 51.42680 47.38880 71.23390 24.80386 21.93578 47.37220
379 71.62600 65.58660 74.97400 42.81950 41.52465 54.81618
380 72.53790 79.97480 91.07000 55.87767 59.09502 84.14613
381 8.339300 42.57360 43.76010 8.678881 12.29949 17.17605
382 17.92970 50.95110 57.22010 14.01830 18.41050 29.75415
383 16.14090 55.72610 89.63620 24.47743 25.25879 77.77928
384 19.16270 75.79860 90.33380 34.11206 43.96454 81.67412
385 14.03630 89.19710 90.18890 41.56789 60.17708 83.27134
386 55.98250 85.77730 58.63640 41.58535 58.09356 37.65129
387 59.89830 87.18180 70.90400 47.09157 61.73294 52.67055
388 79.01260 90.78960 74.73720 61.96262 73.24143 59.76524
389 71.52360 67.58830 11.54140 34.75080 39.98986 7.382506
390 88.25750 72.30710 14.53790 49.12421 50.93972 9.519781
391 89.92710 88.94530 12.30110 59.78126 71.37779 12.46214
392 100.0000 100.0000 100.0000 94.95894 99.98790 108.1725
393 56.63800 27.17160 17.45570 14.28034 10.59229 4.019238
394 66.50660 38.41810 22.29370 22.02983 17.96690 6.543225
395 70.33540 42.99740 40.57600 27.09399 22.24054 15.94963
396 39.49780 13.42110 14.34960 6.596107 4.319872 2.435283
397 39.76710 20.28980 28.90330 8.097584 5.930436 7.338885
398 56.08980 20.40080 100.0000 30.97291 15.82275 97.92663
399 69.29740 58.80480 100.0000 47.27048 38.39068 100.6727
400 100.0000 100.0000 100.0000 94.92823 99.97624 108.1727
401 66.34300 12.48940 17.43890 17.82009 10.29694 3.802944
402 86.10270 34.71380 19.88870 34.37877 23.45307 6.434443
403 79.11770 47.23200 0.000000 31.67043 26.59187 2.983517
404 80.31950 56.53260 8.237500 35.62528 33.14640 5.336581
405 100.0000 60.39150 23.14480 54.60522 45.74108 10.60280
406 100.0000 88.33830 46.91370 71.75475 76.50840 29.06252
407 47.48480 29.43610 10.03650 10.89957 9.467308 2.487185
408 47.84810 32.16700 69.98230 19.34423 13.60539 44.37266
409 51.40300 54.86150 86.45930 31.25652 28.44404 70.27337
410 51.33370 66.71080 88.75480 37.42290 39.09965 77.02905
411 65.85490 100.0000 91.86040 66.13677 85.46890 89.53370
412 85.53900 60.99940 26.93230 42.25237 39.57910 11.06626
413 84.72440 78.81730 35.90100 51.18862 57.22287 18.45798
414 86.98180 90.86350 38.81510 60.63933 73.44160 22.90245
415 14.94890 17.28360 0.000000 1.741171 2.234842 0.511482
416 14.12370 39.23120 13.92170 5.588810 9.615588 3.374881
417 49.01610 44.86830 18.82410 15.28150 16.85546 5.695205
418 74.77540 64.19540 26.34630 36.16673 38.35386 10.77229
419 85.08960 68.46870 40.64860 46.72708 46.80802 19.85544
420 41.89070 50.23000 13.09240 13.86644 18.41166 4.570067
421 41.17860 70.67920 30.60720 23.34983 36.00882 13.06366
422 15.88660 65.77050 28.56790 15.85824 28.70249 10.64604
423 16.72660 66.30640 88.08440 28.45050 34.19579 76.03745
424 10.15730 19.13780 34.95930 3.492703 3.267080 10.45414
425 14.58520 19.91020 50.47320 6.106095 4.464872 22.18505
426 37.67740 48.79160 70.82710 20.42378 20.31185 46.88869
427 0.000000 18.56150 77.07370 11.44238 6.334367 54.63936
428 0.000000 43.35810 75.78600 15.43934 15.43389 53.16149
429 19.69760 43.13480 83.59730 18.92454 16.84139 65.49271
430 34.14210 51.22220 84.52630 24.26042 23.10583 67.74001
431 35.30880 73.09960 100.0000 39.53203 44.37406 101.6764
432 8.577300 7.179200 15.17050 1.007548 0.832259 2.176940
433 23.40640 65.84430 14.90480 16.08540 28.89081 6.905186
434 43.97360 66.55170 15.96860 21.41210 32.23279 7.708541
435 63.77020 68.53850 29.07080 31.85456 39.25100 12.20431
436 64.11120 73.35860 44.67960 36.11039 44.88136 22.79770
437 66.95850 82.26190 61.84150 45.80811 56.87102 40.77083
438 9.608300 28.78670 17.41500 3.286511 5.217610 3.273552
439 18.96330 28.78510 23.68090 4.452578 5.780473 5.302503
440 18.90150 30.93860 32.46250 5.606501 6.844562 9.412285
441 37.66870 51.41870 57.62000 18.04759 20.65901 30.51512
442 49.37920 74.35160 87.40630 40.00228 46.42613 76.19709
443 63.83340 81.31400 100.0000 55.05167 59.25162 102.7354
444 86.10670 93.04980 100.0000 77.40861 82.66602 105.7954
445 19.49960 50.98280 14.16350 9.522758 16.59664 4.521882
446 20.42920 60.30330 38.53180 14.96180 24.52549 15.51956
447 34.21690 64.12960 36.65790 18.90992 29.11496 14.88228
448 16.00600 87.67480 30.19820 28.50826 53.68713 15.80238
449 15.15610 88.56320 47.10520 30.91214 55.43016 27.10935
450 75.06030 100.0000 81.00630 68.27961 86.98466 71.14860
451 17.34400 55.81820 49.25190 14.18364 21.08307 23.06017
452 51.38700 56.39350 63.06640 25.87155 27.32753 38.02867
453 19.15330 10.36840 14.54960 2.076495 1.610395 2.148425
454 26.71640 10.74280 37.84590 5.034914 2.972182 11.95425
455 49.18970 13.38090 45.68280 12.58844 7.141413 17.61820
456 51.12090 17.10960 62.21510 16.66188 9.341747 34.46643
457 60.51650 14.37550 74.87740 24.03858 12.59730 51.41269
458 65.67910 16.59500 90.80450 32.10554 16.43966 78.62625
459 17.09670 15.78620 37.92960 4.072747 3.027398 12.00358
460 38.69290 21.68270 42.48870 9.572887 6.791322 15.43479
461 51.11250 29.30350 45.65860 15.24893 11.41413 18.10712
462 48.99610 37.50490 43.35010 15.76306 14.08649 17.03233
463 57.68520 58.52350 48.39090 26.35308 29.20510 23.20673
464 70.96410 65.35510 55.83690 38.00460 39.75296 31.18474
465 70.06640 77.06070 67.96460 45.89316 52.11372 47.42594
466 16.78300 27.69420 47.01040 6.726334 6.455334 19.00435
467 35.56020 37.76050 68.68780 16.44568 13.80989 43.70101
468 61.59620 46.71260 82.73450 32.61214 25.27589 65.09809
469 73.69430 55.72890 82.79490 42.42138 34.86166 66.09015
470 25.06930 0.000000 18.10130 2.827980 1.487225 2.802049
471 33.09430 10.77220 24.85580 5.115600 3.199596 5.246578
472 73.13490 24.64110 28.37420 23.73771 15.08722 7.780796
473 92.18070 38.27150 46.25110 42.23012 28.54084 20.59831
474 100.0000 49.19370 64.28090 56.29728 39.67558 39.79827
475 27.96010 24.02620 7.566400 4.459360 4.829485 1.390632
476 36.15980 35.45180 9.615800 8.251010 9.646448 2.566806
477 55.77070 47.38140 34.47560 19.75013 20.26984 12.25851
478 68.51900 55.49220 45.83120 30.92746 29.95347 21.31811
479 82.36220 58.13700 45.02100 40.54056 36.33316 21.40909
480 86.46950 61.38260 57.90910 47.40685 42.01177 33.62956
481 86.79190 61.03480 66.90900 49.37183 42.57631 44.59642
482 14.21400 11.59140 6.395800 1.346264 1.413161 0.859081
483 27.17470 18.55980 23.39930 4.364239 3.692615 4.956156
484 65.49650 21.24450 33.66110 19.48731 12.18042 10.13067
485 82.02680 33.06760 51.20100 33.98941 22.23316 23.95382
486 64.99690 0.000000 28.49910 17.38284 9.048635 7.286356
487 67.00510 10.10290 37.38580 19.61544 10.79398 11.65641
488 79.97260 23.68630 38.95230 29.45146 17.88396 13.87832
489 80.79080 38.29360 38.47880 32.55984 23.37513 14.57707
490 55.16270 40.60460 18.32100 16.52027 15.89978 5.386008
491 57.81200 56.65370 16.00390 22.38868 26.27676 6.462469
492 58.51230 70.63810 14.80760 29.21020 39.42706 8.234139
493 67.08620 85.78550 52.97930 46.15817 60.59477 31.60645
494 83.19500 87.56340 54.06760 57.48540 67.89577 33.58334
495 14.91710 29.13710 87.63020 16.61836 10.85298 70.98647
496 29.87940 38.63420 87.30160 20.71330 15.89604 71.98960
497 36.58470 77.38200 84.05610 35.96231 46.52425 69.91659
498 33.16780 85.08850 83.32890 39.69288 55.66878 69.68618
499 36.37930 82.96550 27.61800 28.74858 49.29682 13.56668
500 0.000000 75.17440 25.66070 19.48197 37.83839 11.15774
501 0.000000 81.35910 59.81020 27.62087 46.41984 38.06111
502 20.59830 88.55970 64.12310 34.68534 57.03034 43.88668
503 42.31530 87.88050 63.70320 38.80736 58.43896 43.32410
504 56.23110 78.85300 30.65860 33.40034 48.07425 14.78303
505 71.71410 86.14980 39.70730 47.28311 61.76155 21.53704
506 15.78160 41.38610 24.80110 6.922045 11.10459 6.744125
507 32.55570 43.86630 36.08110 11.26949 14.12502 12.16349
508 45.18180 46.41830 37.12780 15.58513 17.29745 13.29572
509 45.23130 34.72640 22.40490 11.52707 11.15693 5.662916
510 53.45900 40.16030 37.88380 17.22252 15.95251 13.57509
511 61.38390 51.97820 49.78820 26.64459 25.92254 23.80114
512 73.73790 61.37130 62.96060 39.44963 37.47081 39.10327
513 88.68010 74.66510 76.24300 59.74663 57.39404 58.74804
514 44.16090 42.93650 0.000000 12.22859 14.44384 1.898441
515 55.87280 46.40660 6.173600 17.64516 18.73425 3.196742
516 68.96610 50.46900 17.37270 26.51917 25.35935 6.426646
517 75.72020 79.80960 21.87730 44.44023 54.91679 12.11122
518 71.13360 86.35890 5.953700 44.68937 60.66012 9.636279
519 79.57560 100.0000 0.000000 60.06886 83.96145 12.07743
520 84.89850 100.0000 48.87700 67.48331 87.38026 32.58060
521 23.56790 5.693800 11.28380 2.280304 1.445754 1.437310
522 39.96590 10.31100 20.91810 6.778047 4.089370 4.127086
523 42.17290 12.01070 34.60580 8.670683 5.131316 10.14502
524 88.56050 15.86250 51.99290 37.37337 20.71657 24.39979
525 90.26930 16.43400 64.18750 40.96212 22.37189 37.71460
526 0.000000 0.000000 0.000000 0.104901 0.110418 0.119514
527 25.55840 26.33980 36.28670 6.303097 6.108354 11.25867
528 35.41210 37.48930 45.86980 11.60071 11.82073 18.75835
529 64.85410 47.85520 58.47560 28.13625 24.38705 31.79689
530 78.00920 55.68950 70.58220 41.73342 35.01769 47.79090
531 9.876400 7.883000 26.34060 1.775634 1.211162 5.687558
532 11.83200 19.06840 26.03480 2.692488 2.950729 5.675838
533 14.27530 35.38520 28.68760 5.568301 8.142518 7.726666
534 23.12110 45.54960 42.01380 10.61558 14.46141 16.26714
535 0.000000 47.31560 36.12750 8.613565 14.26790 12.40451
536 15.90880 49.84460 35.51230 10.14831 16.10871 12.32213
537 49.20130 85.83530 16.14040 33.83888 54.63140 11.32636
538 67.26910 90.32810 25.01280 45.91476 65.00785 15.00697
539 25.82070 86.16840 13.17650 27.65156 51.74822 10.42816
540 35.88350 100.0000 27.08170 40.95694 73.98152 17.58803
541 53.11420 0.000000 84.74020 22.45151 10.37214 65.85327
542 60.33480 31.14000 85.23610 28.91169 17.86194 66.92675
543 72.29460 39.36900 85.38270 37.39351 25.02064 68.81395
544 87.41140 39.80220 88.60900 49.26100 31.30309 75.67056
545 89.20700 56.83530 87.88720 55.76176 42.50127 75.89011
546 35.09560 3.087300 46.86120 7.740138 3.819901 18.22512
547 36.38840 17.40660 50.81600 9.776940 5.979557 22.67758
548 29.03150 23.74250 42.51280 7.350346 6.049957 15.39092
549 56.26990 49.91010 57.98600 24.18345 23.23467 30.92236
550 83.90300 70.36490 64.39570 50.82369 49.63576 41.88058
551 86.85950 80.55140 70.07520 59.61452 62.30864 51.18068
552 66.44530 37.55850 8.214000 20.93320 17.13442 3.105137
553 78.19650 39.97630 29.40910 30.22858 22.90261 9.580193
554 87.64460 52.51910 28.25880 40.45366 33.68743 10.51375
555 51.80560 63.29270 49.80200 26.35266 32.47316 24.89669
556 52.97150 65.03530 62.18790 29.63350 34.80778 37.96602
557 20.01970 9.849200 86.25510 14.52328 6.650748 67.67784
558 29.53450 21.49460 86.97370 17.31155 9.612739 69.38539
559 28.00500 17.00120 100.0000 21.76527 10.49620 97.65094
560 81.42990 24.92360 100.0000 46.76336 25.20146 98.75833
561 62.44220 0.000000 65.77270 22.27910 10.87593 39.31141
562 72.66100 16.64120 68.81330 29.43685 15.94438 43.40739
563 75.93410 26.26440 84.44860 37.30600 21.28764 66.52891
564 15.56340 6.827100 40.43680 3.679617 1.961997 13.61152
565 17.56390 12.27850 61.95040 7.998309 4.230470 33.72821
566 16.57340 32.80350 65.58740 11.37688 9.853249 39.06856
567 18.56650 43.30100 67.22370 14.35536 14.95195 41.79013
568 24.10080 66.55110 67.59730 23.56054 32.61963 44.36607
569 14.70110 65.09340 72.76920 23.09577 31.07548 51.80299
570 48.31740 69.89260 72.84600 32.78312 39.46879 52.51528
571 62.14480 70.53650 76.54480 40.48304 43.95631 57.90124
572 55.57590 31.34960 39.28800 16.39183 12.59423 13.53136
573 71.40750 41.64430 55.12420 29.95107 22.78143 28.01428
574 87.43200 51.20300 56.00510 43.85187 34.51223 30.02624
575 30.58890 11.89430 6.275500 3.813175 2.734386 0.959469
576 49.94830 14.98380 7.083500 9.910821 6.326129 1.413047
577 64.91040 13.39270 54.86820 21.65583 11.82798 26.38746
578 75.63360 46.09100 72.00970 37.55870 28.16957 49.17852
579 59.44660 41.44390 64.03380 25.35827 20.06111 38.11062
580 59.63560 63.19600 77.24740 36.16118 36.54649 58.23524
581 73.64280 90.23960 82.33760 60.00305 71.15353 70.42056
582 90.05800 90.38600 81.67990 71.79505 77.48738 70.01964
583 23.79780 14.81820 9.069500 2.804657 2.481961 1.294003
584 30.27020 15.64490 16.72060 4.435431 3.434961 2.877839
585 59.45220 29.51760 29.06890 17.31334 12.73489 8.139302
586 88.35260 52.03930 67.02930 47.54461 36.55947 43.54225
587 100.0000 84.38630 74.89370 75.33804 74.03261 59.44317
588 100.0000 89.22690 88.84170 82.89031 82.41607 83.07844
END_DATA
CAL    

DESCRIPTOR "Argyll Device Calibration State"
ORIGINATOR "Argyll dispread"
CREATED "Tue May 26 13:21:48 2020"
DEVICE_CLASS "DISPLAY"
COLOR_REP "RGB"

BEGIN_ARGYLL_DISPCAL_ARGS
-v2 -ql -m -w0.3127,0.329 -gs -f1.0 -k0 -A4.0 -d1 -c1 -yn -P0.475468687675,0.649334945586,2.11251980983 -F
END_ARGYLL_DISPCAL_ARGS


NUMBER_OF_FIELDS 4
BEGIN_DATA_FORMAT
RGB_I RGB_R RGB_G RGB_B
END_DATA_FORMAT

NUMBER_OF_SETS 256
BEGIN_DATA
0.00000000 0.00000000 0.00000000 0.00000000
0.00392157 0.00497882 0.00484541 0.00435822
0.00784314 0.00993753 0.00966734 0.00869088
0.01176470 0.01487630 0.01446600 0.01299820
0.01568630 0.01979510 0.01924150 0.01728040
0.01960780 0.02469430 0.02399400 0.02153770
0.02352940 0.02957380 0.02872370 0.02577040
0.02745100 0.03443410 0.03343110 0.02997850
0.03137250 0.03927950 0.03811560 0.03416290
0.03529410 0.04409590 0.04276370 0.03831930
0.03921570 0.04887820 0.04736790 0.04245400
0.04313730 0.05364310 0.05193530 0.04656110
0.04705880 0.05839600 0.05645280 0.05062720
0.05098040 0.06310730 0.06089500 0.05464470
0.05490200 0.06774700 0.06524600 0.05859140
0.05882350 0.07229370 0.06950520 0.06245690
0.06274510 0.07675570 0.07368040 0.06625250
0.06666670 0.08114910 0.07777850 0.06999440
0.07058820 0.08547410 0.08180480 0.07368880
0.07450980 0.08974180 0.08576950 0.07733370
0.07843140 0.09395570 0.08967900 0.08093250
0.08235290 0.09811430 0.09353690 0.08448610
0.08627450 0.10221500 0.09734110 0.08800010
0.09019610 0.10625300 0.10109400 0.09148470
0.09411760 0.11023000 0.10480300 0.09494120
0.09803920 0.11414600 0.10847300 0.09836900
0.10196100 0.11800400 0.11210900 0.10176700
0.10588200 0.12181200 0.11571500 0.10514400
0.10980400 0.12557900 0.11929500 0.10850700
0.11372500 0.12931600 0.12285400 0.11187000
0.11764700 0.13302600 0.12639300 0.11524400
0.12156900 0.13670900 0.12990800 0.11864100
0.12549000 0.14036900 0.13339700 0.12205900
0.12941200 0.14401100 0.13686600 0.12549000
0.13333300 0.14765300 0.14033100 0.12893100
0.13725500 0.15130000 0.14379700 0.13237800
0.14117600 0.15496300 0.14726700 0.13582700
0.14509800 0.15865000 0.15074900 0.13927900
0.14902000 0.16235900 0.15423800 0.14273000
0.15294100 0.16608500 0.15773400 0.14618100
0.15686300 0.16983200 0.16123800 0.14963000
0.16078400 0.17359600 0.16474500 0.15307400
0.16470600 0.17737900 0.16825600 0.15650700
0.16862700 0.18117200 0.17176500 0.15992700
0.17254900 0.18496100 0.17526500 0.16332100
0.17647100 0.18873400 0.17875100 0.16668100
0.18039200 0.19247500 0.18221800 0.17000900
0.18431400 0.19617500 0.18565500 0.17329700
0.18823500 0.19983100 0.18905900 0.17655100
0.19215700 0.20344600 0.19243200 0.17977500
0.19607800 0.20701400 0.19577200 0.18297300
0.20000000 0.21053600 0.19908000 0.18615800
0.20392200 0.21400900 0.20235700 0.18933000
0.20784300 0.21743900 0.20560900 0.19249100
0.21176500 0.22083000 0.20883900 0.19564400
0.21568600 0.22418600 0.21204600 0.19879700
0.21960800 0.22752500 0.21523800 0.20195200
0.22352900 0.23085500 0.21841900 0.20511300
0.22745100 0.23417900 0.22159100 0.20827800
0.23137300 0.23750400 0.22475500 0.21144800
0.23529400 0.24084100 0.22792100 0.21462900
0.23921600 0.24418900 0.23109300 0.21782400
0.24313700 0.24754900 0.23427200 0.22102500
0.24705900 0.25093300 0.23746400 0.22423300
0.25098000 0.25436200 0.24068600 0.22745900
0.25490200 0.25784400 0.24394500 0.23070600
0.25882400 0.26137600 0.24724000 0.23397500
0.26274500 0.26495700 0.25057300 0.23726400
0.26666700 0.26858700 0.25394000 0.24057000
0.27058800 0.27226300 0.25733600 0.24388700
0.27451000 0.27598500 0.26075600 0.24721100
0.27843100 0.27974900 0.26420300 0.25054500
0.28235300 0.28354500 0.26767500 0.25388600
0.28627500 0.28737000 0.27116300 0.25723300
0.29019600 0.29120700 0.27465900 0.26058500
0.29411800 0.29505100 0.27815200 0.26394200
0.29803900 0.29889100 0.28163900 0.26729900
0.30196100 0.30272800 0.28511300 0.27064700
0.30588200 0.30655700 0.28857600 0.27398800
0.30980400 0.31037900 0.29202700 0.27732100
0.31372500 0.31419600 0.29546700 0.28064900
0.31764700 0.31799500 0.29890000 0.28396700
0.32156900 0.32177700 0.30232000 0.28726900
0.32549000 0.32554200 0.30573200 0.29055100
0.32941200 0.32928700 0.30913800 0.29380600
0.33333300 0.33301600 0.31253700 0.29703500
0.33725500 0.33673300 0.31593300 0.30023800
0.34117600 0.34042900 0.31933400 0.30341900
0.34509800 0.34410300 0.32273900 0.30657600
0.34902000 0.34775400 0.32614700 0.30970800
0.35294100 0.35138300 0.32955600 0.31281500
0.35686300 0.35500100 0.33296800 0.31589700
0.36078400 0.35861900 0.33638400 0.31895200
0.36470600 0.36224500 0.33981400 0.32198900
0.36862700 0.36588000 0.34326000 0.32501800
0.37254900 0.36951800 0.34672400 0.32804700
0.37647100 0.37316200 0.35020000 0.33107600
0.38039200 0.37682000 0.35368500 0.33410800
0.38431400 0.38050100 0.35717700 0.33714600
0.38823500 0.38420300 0.36068100 0.34019700
0.39215700 0.38792300 0.36419700 0.34327100
0.39607800 0.39165700 0.36772100 0.34637500
0.40000000 0.39539200 0.37125300 0.34951300
0.40392200 0.39912400 0.37478000 0.35268400
0.40784300 0.40284900 0.37830000 0.35588600
0.41176500 0.40655200 0.38180900 0.35911500
0.41568600 0.41022800 0.38530100 0.36237200
0.41960800 0.41387700 0.38876900 0.36565100
0.42352900 0.41749200 0.39221100 0.36895100
0.42745100 0.42108000 0.39562200 0.37226900
0.43137300 0.42464500 0.39900200 0.37559000
0.43529400 0.42818400 0.40235800 0.37891400
0.43921600 0.43170700 0.40569300 0.38224300
0.44313700 0.43522400 0.40900700 0.38557600
0.44705900 0.43874300 0.41231700 0.38891300
0.45098000 0.44225400 0.41562900 0.39224500
0.45490200 0.44575900 0.41894200 0.39557300
0.45882400 0.44927700 0.42225100 0.39888800
0.46274500 0.45281600 0.42556100 0.40219400
0.46666700 0.45638000 0.42888000 0.40549400
0.47058800 0.45996800 0.43220800 0.40878700
0.47451000 0.46357500 0.43555000 0.41207200
0.47843100 0.46720500 0.43890600 0.41535200
0.48235300 0.47084800 0.44228000 0.41862800
0.48627500 0.47450600 0.44567400 0.42189800
0.49019600 0.47818100 0.44909000 0.42516900
0.49411800 0.48186900 0.45253300 0.42845400
0.49803900 0.48556100 0.45599400 0.43176300
0.50196100 0.48925400 0.45947000 0.43510200
0.50588200 0.49294900 0.46296000 0.43846800
0.50980400 0.49664600 0.46646600 0.44186000
0.51372500 0.50035500 0.46998800 0.44527800
0.51764700 0.50408200 0.47353300 0.44872700
0.52156900 0.50782500 0.47710600 0.45220700
0.52549000 0.51158500 0.48069500 0.45571300
0.52941200 0.51536200 0.48430000 0.45924500
0.53333300 0.51915600 0.48791900 0.46280200
0.53725500 0.52297400 0.49155400 0.46638500
0.54117600 0.52682300 0.49520400 0.46999700
0.54509800 0.53070900 0.49886900 0.47364000
0.54902000 0.53462400 0.50255700 0.47730400
0.55294100 0.53856000 0.50627300 0.48097500
0.55686300 0.54251700 0.51001000 0.48463400
0.56078400 0.54648900 0.51376100 0.48827600
0.56470600 0.55046300 0.51752700 0.49189900
0.56862700 0.55444300 0.52130600 0.49550800
0.57254900 0.55843500 0.52509200 0.49910100
0.57647100 0.56244200 0.52889200 0.50267800
0.58039200 0.56644900 0.53271300 0.50624600
0.58431400 0.57045000 0.53655800 0.50980200
0.58823500 0.57444100 0.54042000 0.51333800
0.59215700 0.57840500 0.54429600 0.51685800
0.59607800 0.58233500 0.54817000 0.52035900
0.60000000 0.58623300 0.55203100 0.52383800
0.60392200 0.59010900 0.55586700 0.52729900
0.60784300 0.59397600 0.55968400 0.53074500
0.61176500 0.59784900 0.56348900 0.53419100
0.61568600 0.60172600 0.56728700 0.53764000
0.61960800 0.60560200 0.57108100 0.54109500
0.62352900 0.60947600 0.57486800 0.54457000
0.62745100 0.61334300 0.57864700 0.54807000
0.63137300 0.61719100 0.58241800 0.55159300
0.63529400 0.62102500 0.58617200 0.55513000
0.63921600 0.62484800 0.58991300 0.55867800
0.64313700 0.62867000 0.59365000 0.56222500
0.64705900 0.63249500 0.59738800 0.56577900
0.65098000 0.63632100 0.60113200 0.56935000
0.65490200 0.64015300 0.60488900 0.57293600
0.65882400 0.64398800 0.60866700 0.57653800
0.66274500 0.64783200 0.61247100 0.58015800
0.66666700 0.65167900 0.61630300 0.58380200
0.67058800 0.65552900 0.62015500 0.58746200
0.67451000 0.65938100 0.62402500 0.59112900
0.67843100 0.66323200 0.62790500 0.59480500
0.68235300 0.66708300 0.63179300 0.59849000
0.68627500 0.67094700 0.63569000 0.60218300
0.69019600 0.67482100 0.63958900 0.60587600
0.69411800 0.67870500 0.64347600 0.60955900
0.69803900 0.68259600 0.64735000 0.61323200
0.70196100 0.68650200 0.65120600 0.61689500
0.70588200 0.69041600 0.65503700 0.62054600
0.70980400 0.69432900 0.65883300 0.62417900
0.71372500 0.69824200 0.66259400 0.62779000
0.71764700 0.70215500 0.66632500 0.63137900
0.72156900 0.70606300 0.67002800 0.63494400
0.72549000 0.70996900 0.67370600 0.63849000
0.72941200 0.71387100 0.67736500 0.64202800
0.73333300 0.71778200 0.68101000 0.64555900
0.73725500 0.72171200 0.68466000 0.64907500
0.74117600 0.72564900 0.68831600 0.65257100
0.74509800 0.72957900 0.69196700 0.65604000
0.74902000 0.73348700 0.69560800 0.65948200
0.75294100 0.73736300 0.69923100 0.66290100
0.75686300 0.74120100 0.70283600 0.66630400
0.76078400 0.74500500 0.70642900 0.66969200
0.76470600 0.74878000 0.71001000 0.67307000
0.76862700 0.75254000 0.71358200 0.67643600
0.77254900 0.75631800 0.71717000 0.67980200
0.77647100 0.76011500 0.72078300 0.68317400
0.78039200 0.76393400 0.72442300 0.68655300
0.78431400 0.76777000 0.72808700 0.68994900
0.78823500 0.77162000 0.73176400 0.69335600
0.79215700 0.77549500 0.73546100 0.69676800
0.79607800 0.77940000 0.73918200 0.70018400
0.80000000 0.78334100 0.74293200 0.70360900
0.80392200 0.78732200 0.74671900 0.70704700
0.80784300 0.79135100 0.75054600 0.71050300
0.81176500 0.79542400 0.75441100 0.71398500
0.81568600 0.79953800 0.75830400 0.71749600
0.81960800 0.80367900 0.76222300 0.72103800
0.82352900 0.80783300 0.76615300 0.72460500
0.82745100 0.81200000 0.77009100 0.72819600
0.83137300 0.81617200 0.77403500 0.73180700
0.83529400 0.82034500 0.77798000 0.73542300
0.83921600 0.82451800 0.78192700 0.73904100
0.84313700 0.82869700 0.78588200 0.74266400
0.84705900 0.83288500 0.78985200 0.74630400
0.85098000 0.83708700 0.79383800 0.74996900
0.85490200 0.84129900 0.79783900 0.75365600
0.85882400 0.84552800 0.80185200 0.75735900
0.86274500 0.84977700 0.80588400 0.76108100
0.86666700 0.85405200 0.80994000 0.76482200
0.87058800 0.85835200 0.81402200 0.76858100
0.87451000 0.86265200 0.81812200 0.77235400
0.87843100 0.86694900 0.82221900 0.77613600
0.88235300 0.87123700 0.82631300 0.77992500
0.88627500 0.87551300 0.83040200 0.78372200
0.89019600 0.87978700 0.83449100 0.78753300
0.89411800 0.88406000 0.83858900 0.79136700
0.89803900 0.88831500 0.84268900 0.79523800
0.90196100 0.89256400 0.84678000 0.79913000
0.90588200 0.89682300 0.85087900 0.80303400
0.90980400 0.90109100 0.85497900 0.80695600
0.91372500 0.90536200 0.85907800 0.81089500
0.91764700 0.90963800 0.86318100 0.81484900
0.92156900 0.91391000 0.86729000 0.81881400
0.92549000 0.91817000 0.87139800 0.82277900
0.92941200 0.92242800 0.87550800 0.82675000
0.93333300 0.92669500 0.87962300 0.83073200
0.93725500 0.93097000 0.88375200 0.83473100
0.94117600 0.93525900 0.88789600 0.83874800
0.94509800 0.93955900 0.89205000 0.84279100
0.94902000 0.94385400 0.89620300 0.84684800
0.95294100 0.94814700 0.90035800 0.85091300
0.95686300 0.95242900 0.90451200 0.85499500
0.96078400 0.95671000 0.90867200 0.85908600
0.96470600 0.96099500 0.91283500 0.86319400
0.96862700 0.96527600 0.91700200 0.86731900
0.97254900 0.96955600 0.92117000 0.87145700
0.97647100 0.97384300 0.92534500 0.87561000
0.98039200 0.97813500 0.92952600 0.87977700
0.98431400 0.98243400 0.93371300 0.88395900
0.98823500 0.98673900 0.93790600 0.88815600
0.99215700 0.99105000 0.94210600 0.89236600
0.99607800 0.99536800 0.94631200 0.89659200
1.00000000 0.99969200 0.95052500 0.90083300
END_DATA
