CTI3   

DESCRIPTOR "Argyll Calibration Target chart information 3"
ORIGINATOR "Argyll dispread"
CREATED "Tue May 26 13:21:48 2020"
DEVICE_CLASS "DISPLAY"
SINGLE_DIM_STEPS "21"
COMP_GREY_STEPS "61"
DARK_REGION_EMPHASIS "1.6"
COLOR_REP "RGB_XYZ"
TARGET_INSTRUMENT "X-Rite i1 DisplayPro, ColorMunki Display"
DISPLAY_TYPE_REFRESH "NO"
DISPLAY_TYPE_BASE_ID "1"
INSTRUMENT_TYPE_SPECTRAL "NO"
LUMINANCE_XYZ_CDM2 "276.065723 290.584811 314.521394"
NORMALIZED_TO_Y_100 "YES"
VIDEO_LUT_CALIBRATION_POSSIBLE "YES"

BEGIN_ARGYLL_COLPROF_ARGS
-v -qh -aX -bn -C "No copyright. Created with DisplayCAL 3.8.9.3 and ArgyllCMS 2.1.2" -M "DELL U2718Q" -A "Dell, Inc."
END_ARGYLL_COLPROF_ARGS

OBSERVER "1931_2"
USE_BLACK_POINT_COMPENSATION "NO"
BLACK_POINT_CORRECTION "0.0"
HIRES_B2A "YES"
HIRES_B2A_SIZE "-1"
SMOOTH_B2A "YES"
PATCH_SEQUENCE "OPTIMIZE_DISPLAY_RESPONSE_DELAY"

NUMBER_OF_FIELDS 7
BEGIN_DATA_FORMAT
SAMPLE_ID RGB_R RGB_G RGB_B XYZ_X XYZ_Y XYZ_Z
END_DATA_FORMAT

NUMBER_OF_SETS 588
BEGIN_DATA
1 100.0000 100.0000 100.0000 95.00349 100.0000 108.2374
2 1.960800 1.960800 1.960800 0.240737 0.246146 0.340459
3 3.921600 3.921600 3.921600 0.369004 0.384778 0.476796
4 5.882400 5.882400 5.882400 0.538017 0.556614 0.667033
5 9.803900 9.803900 9.803900 1.001822 1.029644 1.226430
6 13.72600 13.72600 13.72600 1.633255 1.714895 1.998006
7 17.64700 17.64700 17.64700 2.498500 2.623822 2.994820
8 21.56900 21.56900 21.56900 3.650593 3.870993 4.235342
9 25.49000 25.49000 25.49000 5.146373 5.377392 5.871683
10 29.41200 29.41200 29.41200 6.756218 7.140070 7.766414
11 33.33300 33.33300 33.33300 8.828481 9.269840 10.04157
12 37.25500 37.25500 37.25500 10.87611 11.38412 12.10679
13 41.17600 41.17600 41.17600 13.40091 14.07166 15.29660
14 45.09800 45.09800 45.09800 16.36965 17.21383 18.70350
15 49.02000 49.02000 49.02000 19.58788 20.54415 22.30588
16 52.94100 52.94100 52.94100 22.87420 24.14235 26.43471
17 56.86300 56.86300 56.86300 26.80140 28.31217 30.49798
18 60.78400 60.78400 60.78400 31.31141 32.94514 35.67149
19 64.70600 64.70600 64.70600 35.66779 37.48383 41.04189
20 68.62700 68.62700 68.62700 40.92815 42.92162 47.06733
21 72.54900 72.54900 72.54900 46.34401 48.69408 53.16138
22 76.47100 76.47100 76.47100 51.91432 54.64499 59.38683
23 80.39200 80.39200 80.39200 58.17558 61.23196 66.39689
24 84.31400 84.31400 84.31400 64.35175 67.71476 73.21038
25 88.23500 88.23500 88.23500 71.41880 75.14437 81.13754
26 92.15700 92.15700 92.15700 78.14296 82.75540 89.53061
27 96.07800 96.07800 96.07800 86.10078 90.88488 98.69803
28 0.000000 35.66440 19.16970 4.353628 7.725940 4.492116
29 0.000000 35.41510 33.12130 5.281435 7.943029 9.845626
30 0.000000 60.21590 72.48900 20.25744 26.53587 50.72388
31 0.000000 74.01180 80.27330 28.82947 40.59515 63.84386
32 77.72720 77.44710 0.000000 43.47264 52.06643 6.808161
33 100.0000 88.07020 21.53500 69.04541 75.40042 14.89354
34 76.64540 0.000000 19.68840 23.68355 12.43952 4.476650
35 86.32490 0.000000 39.35890 32.45256 16.84821 13.74993
36 86.99100 39.31470 64.76230 41.84721 28.10804 38.90950
37 100.0000 61.23170 79.72490 64.81657 50.43342 62.28157
38 10.20410 0.000000 0.000000 0.561996 0.365019 0.267471
39 13.15790 0.000000 0.000000 0.751319 0.462839 0.269537
40 16.30430 0.000000 0.000000 1.066580 0.625710 0.274474
41 19.66290 0.000000 0.000000 1.412395 0.806437 0.283576
42 23.25580 0.000000 0.000000 1.931464 1.078731 0.300125
43 27.10840 0.000000 0.000000 2.586864 1.423593 0.317941
44 31.25000 0.000000 0.000000 3.485642 1.893281 0.347488
45 35.71430 0.000000 0.000000 4.454705 2.404533 0.384167
46 40.54050 0.000000 0.000000 5.954726 3.191487 0.434258
47 45.77470 0.000000 0.000000 7.699408 4.103592 0.481172
48 51.47060 0.000000 0.000000 9.744471 5.174359 0.550560
49 60.95320 0.000000 0.000000 13.93733 7.377864 0.695564
50 64.51610 0.000000 0.000000 15.89789 8.408703 0.768531
51 72.03390 0.000000 0.000000 20.17036 10.65675 0.917364
52 80.35710 0.000000 0.000000 25.66615 13.55610 1.147518
53 89.62260 0.000000 0.000000 32.75571 17.30755 1.426996
54 100.0000 29.24320 40.11290 47.60059 28.83889 16.00877
55 100.0000 29.04640 82.46560 56.77780 32.33738 64.78189
56 0.000000 4.807700 0.000000 0.239791 0.354994 0.277236
57 0.000000 7.425700 0.000000 0.335649 0.544898 0.306657
58 0.000000 10.20410 0.000000 0.472187 0.808739 0.340821
59 0.000000 13.15790 0.000000 0.660687 1.189134 0.390855
60 0.000000 16.30430 0.000000 0.924626 1.735204 0.449804
61 0.000000 19.66290 0.000000 1.231905 2.368704 0.516073
62 23.43430 27.10250 0.000000 3.913356 5.189626 0.801531
63 2.336400 0.000000 0.000000 0.178322 0.143220 0.207475
64 37.41950 28.17970 0.000000 7.157301 7.166649 0.978687
65 71.76240 58.40950 0.000000 30.42309 31.67545 3.828886
66 75.63180 73.43040 44.20940 43.07719 48.49436 22.49054
67 100.0000 100.0000 100.0000 95.01440 100.0257 108.2376
68 0.000000 100.0000 29.06220 36.35168 71.59344 17.81483
69 0.000000 100.0000 49.42020 38.91173 72.63527 31.52744
70 31.11570 100.0000 60.63860 44.36635 75.22681 42.60576
71 88.92360 100.0000 92.61510 82.06114 93.69689 91.71751
72 52.02090 16.07570 26.01800 11.87995 7.417432 5.956994
73 51.97330 27.22840 55.68850 17.01199 11.52359 27.17305
74 66.25240 32.48880 68.56750 27.70740 18.27363 43.66939
75 0.000000 0.000000 2.336400 0.140498 0.121071 0.343612
76 0.000000 0.000000 4.807700 0.169203 0.133067 0.493936
77 0.000000 0.000000 7.425700 0.216963 0.152996 0.739974
78 0.000000 0.000000 10.20410 0.285830 0.181326 1.102080
79 0.000000 0.000000 13.15790 0.396500 0.227219 1.680357
80 0.000000 0.000000 16.30430 0.519402 0.277904 2.317384
81 0.000000 0.000000 19.66290 0.671720 0.340724 3.116896
82 0.000000 0.000000 23.25580 0.928352 0.446746 4.458999
83 0.000000 0.000000 27.10840 1.202574 0.559358 5.884171
84 0.000000 0.000000 31.25000 1.540540 0.698382 7.656264
85 0.000000 0.000000 35.71430 2.015317 0.893006 10.13460
86 0.000000 0.000000 40.54050 2.587169 1.121264 13.09221
87 0.000000 0.000000 45.77470 3.369158 1.447865 17.20601
88 0.000000 0.000000 51.47060 4.257755 1.810834 21.84201
89 0.000000 0.000000 57.69230 5.370129 2.267227 27.65337
90 0.000000 0.000000 64.51610 7.023190 2.944042 36.27242
91 0.000000 0.000000 72.03390 8.960200 3.736226 46.39329
92 0.000000 0.000000 80.35710 11.36534 4.731727 58.99566
93 0.000000 100.0000 85.02720 47.27186 76.05920 75.92992
94 32.42370 100.0000 90.01860 52.93499 78.77075 86.15685
95 0.764500 0.764500 0.764500 0.176926 0.176460 0.277479
96 1.543200 1.543200 1.543200 0.215332 0.211873 0.313280
97 2.336400 2.336400 2.336400 0.258332 0.264742 0.360472
98 3.144700 3.144700 3.144700 0.311069 0.312973 0.419843
99 3.968300 3.968300 3.968300 0.368456 0.384141 0.477506
100 4.807700 4.807700 4.807700 0.425780 0.445676 0.547356
101 5.663400 5.663400 5.663400 0.507368 0.517056 0.655284
102 6.535900 6.535900 6.535900 0.608728 0.628274 0.751245
103 7.425700 7.425700 7.425700 0.693219 0.718780 0.858466
104 8.333300 8.333300 8.333300 0.795796 0.815327 0.958977
105 9.259300 9.259300 9.259300 0.948634 0.975145 1.153378
106 10.20410 10.20410 10.20410 1.065248 1.096291 1.309142
107 11.16840 11.16840 11.16840 1.178242 1.221632 1.426005
108 12.15280 12.15280 12.15280 1.382308 1.454075 1.715245
109 13.15790 13.15790 13.15790 1.559139 1.622656 1.993653
110 14.18440 14.18440 14.18440 1.719222 1.797262 2.106491
111 15.23300 15.23300 15.23300 1.947411 2.066331 2.349016
112 16.30430 16.30430 16.30430 2.262942 2.383105 2.703005
113 17.39930 17.39930 17.39930 2.417338 2.529468 2.845716
114 18.51850 18.51850 18.51850 2.748625 2.879898 3.255669
115 19.66290 19.66290 19.66290 3.062301 3.258500 3.555466
116 20.83330 20.83330 20.83330 3.455026 3.605535 4.031406
117 22.03070 22.03070 22.03070 3.830276 4.033512 4.434864
118 23.25580 23.25580 23.25580 4.225700 4.430516 5.048887
119 24.50980 24.50980 24.50980 4.567170 4.796942 5.288396
120 25.79360 25.79360 25.79360 5.221254 5.541232 5.956234
121 27.10840 27.10840 27.10840 5.667833 5.985864 6.545783
122 28.45530 28.45530 28.45530 6.336635 6.695439 7.271334
123 29.83540 29.83540 29.83540 7.016346 7.346090 8.095928
124 31.25000 31.25000 31.25000 7.629624 8.034662 8.650293
125 32.70040 32.70040 32.70040 8.367148 8.773946 9.448986
126 34.18800 34.18800 34.18800 8.993289 9.441606 10.35396
127 35.71430 35.71430 35.71430 9.887347 10.46498 11.32810
128 37.28070 37.28070 37.28070 10.88112 11.38867 12.11479
129 41.70490 53.41040 48.88100 18.26009 21.82947 22.74904
130 63.01980 54.43080 70.87300 32.33949 29.27285 47.83824
131 0.000000 0.000000 0.000000 0.114257 0.110182 0.206916
132 0.000000 2.336400 0.000000 0.170963 0.221659 0.238040
133 0.000000 45.77470 0.000000 6.236504 12.65430 1.829063
134 0.000000 53.91680 22.98320 9.466490 17.73462 7.271338
135 26.85180 76.23990 48.73350 24.92193 40.66117 25.77584
136 61.37830 78.33540 73.78640 43.54713 51.77880 55.17373
137 42.23740 42.23740 42.23740 14.27766 15.03851 16.41733
138 43.98150 43.98150 43.98150 15.42561 16.14071 17.33391
139 57.69230 57.69230 57.69230 27.61513 29.15564 31.55823
140 59.89580 59.89580 59.89580 30.57310 32.11707 35.02901
141 62.16930 62.16930 62.16930 33.34501 35.01512 38.10917
142 64.51610 64.51610 64.51610 35.70179 37.48468 41.05768
143 66.93990 66.93990 66.93990 38.76574 40.69253 44.66178
144 69.44440 69.44440 69.44440 41.97634 44.06396 48.26640
145 72.03390 72.03390 72.03390 45.75247 48.08638 52.39651
146 74.71260 74.71260 74.71260 49.49201 52.35870 56.46598
147 77.48540 77.48540 77.48540 53.84647 56.66529 61.18063
148 80.35710 80.35710 80.35710 58.15710 61.21895 66.42331
149 83.33330 83.33330 83.33330 62.31061 65.72746 70.88283
150 86.41970 86.41970 86.41970 67.83859 71.45762 76.97688
151 89.62260 89.62260 89.62260 73.85137 77.80563 84.51272
152 92.94870 92.94870 92.94870 79.94886 84.31779 91.13441
153 96.40520 96.40520 96.40520 87.35332 92.00676 99.65252
154 17.06250 0.000000 26.68250 2.185025 1.070523 5.723175
155 18.48030 14.73750 25.90510 2.909499 2.440878 5.610196
156 42.08510 28.69030 28.80360 9.670220 8.427691 7.354662
157 70.19830 35.73920 44.02410 25.60790 18.72704 17.28704
158 100.0000 51.99880 52.87840 55.08623 41.01128 27.74023
159 42.68810 19.00850 0.000000 7.554643 5.617985 0.763267
160 60.16180 25.71290 0.000000 15.59090 11.16525 1.220212
161 62.56660 58.55190 35.44540 27.40234 29.92112 14.17763
162 34.31870 100.0000 0.000000 39.47327 73.34875 10.91018
163 58.07780 100.0000 0.000000 47.73031 77.59820 11.53217
164 0.000000 0.000000 89.62260 14.42305 5.971750 74.92762
165 0.000000 0.000000 100.0000 18.52524 7.614692 96.34408
166 82.85680 80.65730 100.0000 66.80926 65.31091 103.8346
167 0.000000 0.000000 0.000000 0.114285 0.110266 0.207344
168 0.000000 24.14090 100.0000 20.28729 10.89703 97.81111
169 0.000000 38.49620 100.0000 22.83200 16.18867 98.31891
170 26.32130 49.12500 100.0000 27.50786 22.85263 99.07879
171 33.08180 62.01710 100.0000 34.01771 33.66799 100.7306
172 0.000000 24.83120 65.31010 9.008190 6.503837 38.32931
173 0.000000 35.39010 82.15780 15.46366 12.11367 63.17729
174 34.92230 35.47640 100.0000 26.21023 16.90480 98.93329
175 60.14610 68.56030 100.0000 46.77376 44.80140 101.4420
176 100.0000 87.50860 100.0000 85.94702 81.50640 105.3183
177 15.92040 9.022000 0.000000 1.285035 1.146203 0.370435
178 27.01230 15.25180 0.000000 3.270523 2.818935 0.522604
179 31.74690 75.25220 0.000000 21.95836 39.21304 5.519365
180 55.71570 78.36890 0.000000 31.36357 46.86158 6.384301
181 13.75000 0.000000 11.65910 0.978622 0.534981 1.340016
182 34.26700 0.000000 33.63250 5.790355 2.896919 9.382356
183 36.10270 56.02690 44.02230 16.83863 22.69330 18.66502
184 50.57790 71.31680 45.81780 28.95460 39.60942 22.94964
185 100.0000 76.41780 86.89890 74.48673 66.27850 77.04978
186 57.69230 0.000000 0.000000 12.24735 6.494422 0.651954
187 69.19380 23.08030 12.05080 20.22117 13.04833 2.994447
188 81.81390 41.61160 12.78300 32.29057 24.60352 5.010680
189 100.0000 79.15700 0.000000 62.78503 64.14625 8.153539
190 100.0000 100.0000 0.000000 76.68910 92.55320 12.90025
191 31.95540 56.55150 0.000000 13.08792 21.33167 2.873225
192 53.44880 59.70990 0.000000 21.07168 27.61437 3.528387
193 100.0000 60.80780 41.81680 56.53756 46.77863 19.96680
194 100.0000 71.46910 60.10680 64.61616 58.07461 38.14918
195 100.0000 100.0000 63.18580 83.34451 95.29012 47.57885
196 78.93930 27.24920 0.000000 27.00166 17.44036 1.710385
197 100.0000 47.84730 0.000000 49.29479 36.51772 4.062608
198 100.0000 64.16110 0.000000 55.16146 48.58269 5.682727
199 33.86590 33.06940 21.06520 7.838446 8.699181 5.097718
200 39.19420 34.61830 29.13270 10.01862 10.16420 7.867535
201 38.88890 38.88890 38.88890 11.96835 12.55579 13.59868
202 52.12320 86.09430 41.90650 37.41017 56.62123 22.64836
203 57.86850 100.0000 65.00440 54.59252 80.40208 48.42243
204 100.0000 100.0000 85.78340 89.59439 97.82830 80.22651
205 27.29840 49.75180 26.90400 10.98415 16.63172 8.343997
206 100.0000 75.00440 29.37660 61.93068 60.03895 14.94044
207 100.0000 75.57700 48.57140 64.65761 61.58544 27.93956
208 0.000000 0.000000 0.000000 0.114294 0.110370 0.207307
209 0.000000 13.58970 36.16900 2.671486 2.074202 10.81775
210 37.02480 28.35410 37.99610 9.275889 8.044599 12.29498
211 0.000000 89.62260 0.000000 27.09501 55.07972 8.098105
212 0.000000 100.0000 0.000000 35.01971 71.02544 10.74348
213 0.000000 100.0000 100.0000 53.00182 78.31883 106.1610
214 0.000000 24.83210 38.98490 4.100977 4.499533 12.76798
215 0.000000 28.07850 53.91230 7.001815 6.600072 25.21597
216 31.27450 34.18790 53.77760 11.33864 10.37535 25.60549
217 36.15970 58.54240 58.06670 20.20772 25.60094 31.74259
218 39.10960 83.27980 100.0000 46.43462 56.57353 103.2800
219 62.80500 91.76970 100.0000 61.33388 72.70947 104.8929
220 79.31710 100.0000 100.0000 77.69651 91.06731 107.0440
221 31.81460 0.000000 12.63880 3.853858 2.050777 1.709272
222 47.70350 0.000000 27.26770 9.387205 4.849629 6.456818
223 46.79880 0.000000 49.35400 11.59000 5.677130 20.81382
224 51.47060 51.47060 51.47060 21.77835 22.92949 24.74116
225 53.48260 53.48260 53.48260 23.30911 24.53410 26.96835
226 55.55560 55.55560 55.55560 25.57994 27.02625 29.46074
227 28.26180 21.87020 57.52540 9.395673 6.438693 28.57751
228 41.37790 32.29750 56.82920 14.19268 11.25676 28.32350
229 41.41660 0.000000 100.0000 24.53470 10.70579 97.61213
230 72.44870 0.000000 100.0000 38.93019 18.23866 97.84555
231 0.000000 27.10840 0.000000 2.163370 4.286786 0.742766
232 0.000000 31.25000 0.000000 2.864823 5.716501 0.934070
233 0.000000 35.71430 0.000000 3.702606 7.464479 1.167787
234 0.000000 40.54050 0.000000 4.716893 9.493157 1.432151
235 47.61910 47.61910 47.61910 18.32801 19.23929 21.00405
236 49.51690 49.51690 49.51690 19.82628 20.83881 22.83925
237 68.74580 70.58820 52.67970 38.55548 43.85676 28.76028
238 89.15430 70.61370 54.38710 53.13009 51.35421 31.27940
239 61.59040 100.0000 28.03170 50.63909 78.98935 18.17841
240 83.45150 100.0000 27.58620 64.10705 85.93997 18.61243
241 23.60400 39.22440 0.000000 6.316345 10.03397 1.436944
242 57.11870 39.13990 0.000000 16.54465 15.49837 1.864182
243 60.02880 39.43460 31.16910 19.60696 17.07350 9.737848
244 62.09410 39.80780 100.0000 37.94847 24.67130 99.34208
245 81.57160 49.60730 100.0000 51.94288 35.89340 100.2322
246 100.0000 72.67020 100.0000 77.67892 64.39338 103.2606
247 32.42810 43.49860 55.94260 14.30537 15.36412 27.99839
248 42.76970 57.63050 70.79150 24.97198 27.27520 47.91735
249 54.35800 100.0000 81.43510 57.06869 81.21675 70.96166
250 0.000000 23.25580 0.000000 1.624276 3.177475 0.621234
251 15.74180 27.91230 7.520600 3.203687 4.991058 1.450560
252 16.69510 29.23430 39.22260 5.814274 6.554112 12.96575
253 40.54050 40.54050 40.54050 13.01011 13.55050 14.84208
254 45.77470 45.77470 45.77470 17.18520 18.03838 19.69333
255 68.91380 48.50290 51.16540 29.56987 25.73787 24.93079
256 100.0000 70.49100 72.05660 67.16048 58.46044 53.35523
257 100.0000 0.000000 0.000000 42.41528 22.40538 1.852149
258 100.0000 0.000000 21.50800 43.30055 22.76925 6.459697
259 100.0000 0.000000 37.26040 44.54980 23.26914 13.14959
260 100.0000 0.000000 52.37300 46.83826 24.20332 25.16411
261 100.0000 28.92290 53.47340 49.56473 29.53024 26.71615
262 100.0000 32.50540 67.66790 53.40120 32.02724 43.96534
263 100.0000 29.20260 0.000000 44.96018 27.65033 2.701969
264 100.0000 44.19800 19.41910 49.09291 34.84653 7.823579
265 100.0000 43.98350 36.16260 50.24855 35.10038 14.43846
266 100.0000 100.0000 35.31040 78.76455 93.41101 23.68049
267 77.26620 100.0000 63.26640 65.07530 85.84354 46.65311
268 88.94980 100.0000 76.00880 76.96578 91.63939 64.35777
269 0.000000 51.47060 0.000000 7.841887 15.93035 2.280714
270 0.000000 57.69230 0.000000 10.05288 20.43954 2.894124
271 0.000000 64.51610 0.000000 13.04035 26.50246 3.716253
272 0.000000 77.25550 43.16660 22.23929 40.38457 21.29954
273 34.86680 82.99720 42.69120 30.12235 49.82915 22.51489
274 37.18250 100.0000 45.73160 43.43900 75.01801 29.20919
275 62.13030 100.0000 47.62940 53.33837 80.11292 30.90923
276 0.000000 72.03390 0.000000 16.66611 33.93044 4.837491
277 0.000000 80.35710 0.000000 21.11526 42.94970 6.192338
278 0.000000 83.74570 77.94750 33.58777 51.49201 61.53434
279 29.82310 90.99150 100.0000 49.14883 65.64864 104.6336
280 0.000000 39.75900 48.26310 8.302601 10.85671 20.75492
281 0.000000 41.92570 60.86420 11.22598 12.93821 33.36762
282 0.000000 52.49940 100.0000 26.74026 24.35738 99.05041
283 0.000000 65.11390 100.0000 31.69655 34.45843 100.6486
284 100.0000 0.000000 65.80480 49.66624 25.32991 39.98586
285 100.0000 0.000000 82.46290 54.26790 27.22443 64.08035
286 100.0000 0.000000 100.0000 60.91986 29.85978 98.94713
287 100.0000 32.21010 100.0000 64.01742 36.20529 99.72580
288 100.0000 54.74340 100.0000 69.78462 48.20161 100.8856
289 0.000000 100.0000 67.72110 42.59913 74.13298 51.31277
290 31.81150 100.0000 75.11790 48.11456 76.73570 61.67094
291 47.76460 100.0000 100.0000 61.09082 82.50145 106.2384
292 4.807700 0.000000 0.000000 0.249746 0.180572 0.210905
293 7.425700 0.000000 0.000000 0.382444 0.260322 0.236586
294 0.000000 11.74650 13.00910 0.835435 1.127382 1.799618
295 0.000000 22.94710 16.40900 2.037222 3.349523 2.852399
296 0.000000 24.31020 28.82340 2.968541 3.942391 7.058341
297 0.000000 56.75570 80.63490 20.94597 24.39306 61.66475
298 0.000000 76.60450 100.0000 37.17129 45.78980 101.9979
299 0.000000 87.07460 100.0000 43.54648 58.76971 104.0805
300 24.05950 0.000000 48.71200 5.682746 2.585948 19.87120
301 40.37640 0.000000 62.94810 12.40245 5.784281 35.38766
302 57.71430 0.000000 43.23270 15.14822 7.657534 15.82218
303 76.28510 0.000000 61.15330 29.22012 14.67177 33.44855
304 78.82320 0.000000 83.42800 36.86067 17.96568 65.04122
305 37.61170 17.26680 66.22020 13.18878 7.370973 39.26096
306 47.04870 41.35750 85.18420 25.18966 19.10642 67.26632
307 50.43330 52.49200 100.0000 36.02576 29.15228 99.90459
308 0.000000 61.83350 41.33740 14.58169 25.33791 17.50136
309 0.000000 64.25320 57.54070 18.24239 28.41121 31.88527
310 17.47840 71.80910 57.94670 23.15963 36.40639 33.71024
311 19.36230 87.59100 74.63900 36.22722 56.41738 56.93325
312 9.212100 17.67800 9.704500 1.522048 2.156358 1.409498
313 8.824900 21.59760 20.92380 2.450278 3.259809 4.080400
314 26.29440 35.44810 23.77800 6.792743 8.813028 5.801791
315 74.01080 50.54220 30.73200 30.42341 27.27347 11.09268
316 91.11210 52.97230 43.91380 45.25246 36.08590 19.95973
317 52.83610 15.64320 34.89810 12.76578 7.714413 10.56605
318 64.94560 19.58060 44.80200 20.43932 12.28125 17.19238
319 64.40990 30.86430 53.22100 22.88271 15.63431 25.32110
320 20.45230 23.67320 12.72470 3.396927 4.143597 2.192142
321 28.34290 24.11780 18.33960 4.998005 5.063283 3.602822
322 36.16760 56.42920 22.89720 14.95480 22.21815 7.782266
323 50.61210 60.78090 29.63480 22.12757 28.84944 11.27200
324 27.28180 37.41180 13.57250 6.843318 9.500698 3.175852
325 39.49140 43.55770 24.86710 12.13792 14.65427 7.093293
326 67.92310 66.47140 89.88700 45.85222 43.38718 80.37313
327 84.37350 68.61440 100.0000 61.64286 52.81135 101.7416
328 28.18190 0.000000 74.91140 12.21718 5.355824 50.49096
329 43.78670 14.88350 80.78600 18.70702 9.561098 59.35693
330 43.84800 29.60320 87.16700 22.30641 13.89930 70.03517
331 23.74190 26.36320 72.26280 12.69657 8.677147 46.87697
332 32.01080 59.58790 81.70670 25.81708 28.62751 63.55804
333 87.02440 68.88960 81.97720 57.09847 51.50345 66.73406
334 74.61830 0.000000 45.37040 24.82203 12.71675 17.98288
335 76.40610 22.46650 57.14060 29.80737 17.42745 28.97319
336 82.95980 36.35120 72.71270 40.33033 25.99149 49.88453
337 100.0000 48.81780 83.86080 61.75777 41.89325 68.33256
338 36.18210 68.60600 51.61680 23.71066 34.41981 27.12831
339 36.34390 68.96510 61.69530 25.98812 35.70731 37.51391
340 50.04000 84.31990 79.42070 43.36572 56.84764 64.35244
341 55.57670 90.38440 91.90440 53.20449 67.28120 86.87529
342 35.60830 23.42020 12.97110 6.289966 5.669988 2.429971
343 45.05510 23.91070 19.01170 9.531450 7.429163 3.975138
344 46.25450 37.08250 50.83380 15.73327 13.72208 23.30547
345 46.58160 46.91630 59.82950 20.20314 19.73840 33.27918
346 50.93920 72.57070 61.09670 32.42778 41.89692 37.65022
347 63.69000 82.27130 86.48380 50.42499 58.43910 75.84723
348 77.85610 88.62780 88.94640 64.01872 71.40529 81.80871
349 15.72600 5.973800 20.53200 1.723490 1.114746 3.545471
350 24.64950 7.272300 26.36290 3.419943 2.034132 5.741573
351 29.49200 17.55100 29.70410 5.287268 3.996731 7.715879
352 40.21530 51.39050 35.35790 15.60121 19.75539 12.86710
353 52.70250 56.83790 38.58560 22.10849 26.20924 15.63505
354 72.52950 58.99920 39.63290 33.63006 33.31065 17.21319
355 85.02970 77.65950 55.95470 53.63603 57.11163 33.46124
356 16.86790 37.51490 43.61850 8.010307 10.00291 16.75557
357 16.42800 37.14250 51.99970 9.264804 10.32944 24.06681
358 15.48590 50.32490 65.31040 15.44683 18.51751 40.06773
359 11.87650 71.97740 69.06460 25.32835 37.55868 47.43068
360 40.01460 84.69110 72.62060 38.35545 54.81787 54.38858
361 85.70530 87.66580 66.51370 63.05119 71.07102 48.46328
362 100.0000 89.23450 66.28920 76.28869 79.70630 48.60213
363 51.52820 0.000000 15.03940 10.08344 5.303803 2.478226
364 55.58320 15.11570 18.70930 12.66040 7.795118 4.000426
365 100.0000 26.35800 22.23690 45.46482 27.16884 7.441289
366 84.26000 17.01410 12.48470 29.86209 17.24416 3.541880
367 89.72450 23.23160 27.41800 35.71542 21.35122 8.407666
368 86.83260 14.23550 32.78540 32.86190 18.37650 10.65027
369 87.52050 13.59890 74.37390 41.06884 21.66026 51.76250
370 89.58030 15.76720 92.34600 48.96266 25.36936 82.24645
371 0.000000 11.86030 22.53700 1.308155 1.323728 4.276226
372 0.000000 14.11290 51.43660 4.928544 3.050130 22.44118
373 0.000000 52.81100 55.11890 13.16546 18.81618 28.07382
374 33.38710 63.29160 73.94970 25.82962 31.27608 53.46516
375 80.40920 69.71280 89.18690 55.05591 50.72190 79.17840
376 85.86430 80.16650 89.31930 64.69550 63.94554 81.54221
377 31.37470 41.74040 43.56440 11.36122 13.18338 17.21557
378 51.42680 47.38880 71.23390 24.80409 21.93603 47.37240
379 71.62600 65.58660 74.97400 42.81967 41.52484 54.81635
380 72.53790 79.97480 91.07000 55.87780 59.09515 84.14621
381 8.339300 42.57360 43.76010 8.679161 12.29977 17.17634
382 17.92970 50.95110 57.22010 14.01856 18.41076 29.75440
383 16.14090 55.72610 89.63620 24.47766 25.25903 77.77938
384 19.16270 75.79860 90.33380 34.11226 43.96472 81.67421
385 14.03630 89.19710 90.18890 41.56806 60.17721 83.27142
386 55.98250 85.77730 58.63640 41.58552 58.09370 37.65152
387 59.89830 87.18180 70.90400 47.09173 61.73306 52.67073
388 79.01260 90.78960 74.73720 61.96273 73.24152 59.76540
389 71.52360 67.58830 11.54140 34.75100 39.99005 7.382833
390 88.25750 72.30710 14.53790 49.12436 50.93988 9.520101
391 89.92710 88.94530 12.30110 59.78137 71.37788 12.46245
392 100.0000 100.0000 100.0000 94.95894 99.98790 108.1725
393 56.63800 27.17160 17.45570 14.28060 10.59258 4.019576
394 66.50660 38.41810 22.29370 22.03007 17.96717 6.543554
395 70.33540 42.99740 40.57600 27.09421 22.24079 15.94993
396 39.49780 13.42110 14.34960 6.596394 4.320182 2.435629
397 39.76710 20.28980 28.90330 8.097866 5.930741 7.339212
398 56.08980 20.40080 100.0000 30.97312 15.82302 97.92666
399 69.29740 58.80480 100.0000 47.27063 38.39088 100.6727
400 100.0000 100.0000 100.0000 94.92823 99.97624 108.1727
401 66.34300 12.48940 17.43890 17.82034 10.29723 3.803282
402 86.10270 34.71380 19.88870 34.37897 23.45332 6.434773
403 79.11770 47.23200 0.000000 31.67064 26.59211 2.983858
404 80.31950 56.53260 8.237500 35.62547 33.14662 5.336914
405 100.0000 60.39150 23.14480 54.60535 45.74126 10.60312
406 100.0000 88.33830 46.91370 71.75483 76.50848 29.06278
407 47.48480 29.43610 10.03650 10.89984 9.467601 2.487528
408 47.84810 32.16700 69.98230 19.34448 13.60567 44.37287
409 51.40300 54.86150 86.45930 31.25673 28.44427 70.27349
410 51.33370 66.71080 88.75480 37.42309 39.09985 77.02915
411 65.85490 100.0000 91.86040 66.13686 85.46895 89.53376
412 85.53900 60.99940 26.93230 42.25254 39.57930 11.06657
413 84.72440 78.81730 35.90100 51.18876 57.22301 18.45827
414 86.98180 90.86350 38.81510 60.63944 73.44169 22.90273
415 14.94890 17.28360 0.000000 1.741488 2.235159 0.511920
416 14.12370 39.23120 13.92170 5.589100 9.615881 3.375221
417 49.01610 44.86830 18.82410 15.28176 16.85573 5.695537
418 74.77540 64.19540 26.34630 36.16692 38.35406 10.77261
419 85.08960 68.46870 40.64860 46.72724 46.80819 19.85573
420 41.89070 50.23000 13.09240 13.86670 18.41192 4.570403
421 41.17860 70.67920 30.60720 23.35006 36.00903 13.06397
422 15.88660 65.77050 28.56790 15.85850 28.70272 10.64636
423 16.72660 66.30640 88.08440 28.45072 34.19600 76.03755
424 10.15730 19.13780 34.95930 3.493002 3.267393 10.45451
425 14.58520 19.91020 50.47320 6.106383 4.465182 22.18534
426 37.67740 48.79160 70.82710 20.42402 20.31211 46.88889
427 0.000000 18.56150 77.07370 11.44265 6.334670 54.63953
428 0.000000 43.35810 75.78600 15.43960 15.43416 53.16167
429 19.69760 43.13480 83.59730 18.92479 16.84166 65.49285
430 34.14210 51.22220 84.52630 24.26065 23.10608 67.74014
431 35.30880 73.09960 100.0000 39.53221 44.37424 101.6764
432 8.577300 7.179200 15.17050 1.008526 0.832580 2.187278
433 23.40640 65.84430 14.90480 16.08566 28.89104 6.905514
434 43.97360 66.55170 15.96860 21.41234 32.23301 7.708867
435 63.77020 68.53850 29.07080 31.85476 39.25120 12.20462
436 64.11120 73.35860 44.67960 36.11058 44.88154 22.79798
437 66.95850 82.26190 61.84150 45.80827 56.87116 40.77105
438 9.608300 28.78670 17.41500 3.286808 5.217917 3.273893
439 18.96330 28.78510 23.68090 4.452871 5.780778 5.302837
440 18.90150 30.93860 32.46250 5.606791 6.844864 9.412605
441 37.66870 51.41870 57.62000 18.04784 20.65927 30.51537
442 49.37920 74.35160 87.40630 40.00246 46.42630 76.19719
443 63.83340 81.31400 100.0000 55.05180 59.25175 102.7354
444 86.10670 93.04980 100.0000 77.40867 82.66608 105.7954
445 19.49960 50.98280 14.16350 9.523035 16.59691 4.522218
446 20.42920 60.30330 38.53180 14.96206 24.52573 15.51986
447 34.21690 64.12960 36.65790 18.91017 29.11519 14.88258
448 16.00600 87.67480 30.19820 28.50848 53.68728 15.80268
449 15.15610 88.56320 47.10520 30.91235 55.43030 27.10961
450 75.06030 100.0000 81.00630 68.27970 86.98470 71.14872
451 17.34400 55.81820 49.25190 14.18390 21.08333 23.06045
452 51.38700 56.39350 63.06640 25.87177 27.32777 38.02890
453 19.15330 10.36840 14.54960 2.076879 1.610714 2.149519
454 26.71640 10.74280 37.84590 5.035212 2.972496 11.95466
455 49.18970 13.38090 45.68280 12.58871 7.141714 17.61849
456 51.12090 17.10960 62.21510 16.66213 9.342041 34.46667
457 60.51650 14.37550 74.87740 24.03881 12.59758 51.41287
458 65.67910 16.59500 90.80450 32.10574 16.43993 78.62635
459 17.09670 15.78620 37.92960 4.073046 3.027712 12.00398
460 38.69290 21.68270 42.48870 9.573164 6.791624 15.43509
461 51.11250 29.30350 45.65860 15.24919 11.41442 18.10741
462 48.99610 37.50490 43.35010 15.76332 14.08677 17.03263
463 57.68520 58.52350 48.39090 26.35330 29.20533 23.20701
464 70.96410 65.35510 55.83690 38.00478 39.75316 31.18499
465 70.06640 77.06070 67.96460 45.89332 52.11388 47.42614
466 16.78300 27.69420 47.01040 6.726620 6.455637 19.00464
467 35.56020 37.76050 68.68780 16.44593 13.81017 43.70122
468 61.59620 46.71260 82.73450 32.61234 25.27613 65.09823
469 73.69430 55.72890 82.79490 42.42155 34.86187 66.09029
470 25.06930 0.000000 18.10130 2.828423 1.487544 2.803665
471 33.09430 10.77220 24.85580 5.115895 3.199910 5.246948
472 73.13490 24.64110 28.37420 23.73794 15.08750 7.781121
473 92.18070 38.27150 46.25110 42.23029 28.54107 20.59859
474 100.0000 49.19370 64.28090 56.29741 39.67578 39.79849
475 27.96010 24.02620 7.566400 4.459654 4.829793 1.390979
476 36.15980 35.45180 9.615800 8.251291 9.646741 2.567148
477 55.77070 47.38140 34.47560 19.75037 20.27010 12.25882
478 68.51900 55.49220 45.83120 30.92767 29.95370 21.31839
479 82.36220 58.13700 45.02100 40.54074 36.33337 21.40937
480 86.46950 61.38260 57.90910 47.40700 42.01196 33.62980
481 86.79190 61.03480 66.90900 49.37198 42.57650 44.59663
482 14.21400 11.59140 6.395800 1.346677 1.413480 0.860205
483 27.17470 18.55980 23.39930 4.364534 3.692927 4.956504
484 65.49650 21.24450 33.66110 19.48755 12.18070 10.13099
485 82.02680 33.06760 51.20100 33.98961 22.23341 23.95409
486 64.99690 0.000000 28.49910 17.38309 9.048930 7.286683
487 67.00510 10.10290 37.38580 19.61568 10.79427 11.65672
488 79.97260 23.68630 38.95230 29.45167 17.88423 13.87863
489 80.79080 38.29360 38.47880 32.56004 23.37538 14.57737
490 55.16270 40.60460 18.32100 16.52052 15.90005 5.386341
491 57.81200 56.65370 16.00390 22.38892 26.27700 6.462799
492 58.51230 70.63810 14.80760 29.21041 39.42726 8.234463
493 67.08620 85.78550 52.97930 46.15833 60.59490 31.60670
494 83.19500 87.56340 54.06760 57.48552 67.89587 33.58358
495 14.91710 29.13710 87.63020 16.61861 10.85327 70.98659
496 29.87940 38.63420 87.30160 20.71354 15.89631 71.98972
497 36.58470 77.38200 84.05610 35.96250 46.52442 69.91671
498 33.16780 85.08850 83.32890 39.69306 55.66892 69.68630
499 36.37930 82.96550 27.61800 28.74879 49.29698 13.56699
500 0.000000 75.17440 25.66070 19.48221 37.83859 11.15805
501 0.000000 81.35910 59.81020 27.62109 46.42001 38.06134
502 20.59830 88.55970 64.12310 34.68554 57.03048 43.88689
503 42.31530 87.88050 63.70320 38.80754 58.43909 43.32431
504 56.23110 78.85300 30.65860 33.40054 48.07442 14.78333
505 71.71410 86.14980 39.70730 47.28326 61.76167 21.53732
506 15.78160 41.38610 24.80110 6.922330 11.10488 6.744454
507 32.55570 43.86630 36.08110 11.26976 14.12530 12.16380
508 45.18180 46.41830 37.12780 15.58539 17.29772 13.29603
509 45.23130 34.72640 22.40490 11.52734 11.15722 5.663248
510 53.45900 40.16030 37.88380 17.22277 15.95278 13.57540
511 61.38390 51.97820 49.78820 26.64481 25.92278 23.80141
512 73.73790 61.37130 62.96060 39.44981 37.47101 39.10349
513 88.68010 74.66510 76.24300 59.74674 57.39418 58.74820
514 44.16090 42.93650 0.000000 12.22886 14.44412 1.898785
515 55.87280 46.40660 6.173600 17.64541 18.73451 3.197082
516 68.96610 50.46900 17.37270 26.51939 25.35959 6.426976
517 75.72020 79.80960 21.87730 44.44039 54.91694 12.11153
518 71.13360 86.35890 5.953700 44.68953 60.66025 9.636598
519 79.57560 100.0000 0.000000 60.06897 83.96150 12.07774
520 84.89850 100.0000 48.87700 67.48340 87.38030 32.58085
521 23.56790 5.693800 11.28380 2.280746 1.446073 1.438579
522 39.96590 10.31100 20.91810 6.778334 4.089681 4.127429
523 42.17290 12.01070 34.60580 8.670963 5.131623 10.14534
524 88.56050 15.86250 51.99290 37.37356 20.71683 24.40006
525 90.26930 16.43400 64.18750 40.96230 22.37214 37.71483
526 0.000000 0.000000 0.000000 0.114311 0.110742 0.207935
527 25.55840 26.33980 36.28670 6.303384 6.108658 11.25898
528 35.41210 37.48930 45.86980 11.60098 11.82102 18.75864
529 64.85410 47.85520 58.47560 28.13647 24.38729 31.79714
530 78.00920 55.68950 70.58220 41.73359 35.01790 47.79110
531 9.876400 7.883000 26.34060 1.776185 1.211482 5.692687
532 11.83200 19.06840 26.03480 2.692791 2.951043 5.676232
533 14.27530 35.38520 28.68760 5.568591 8.142816 7.726992
534 23.12110 45.54960 42.01380 10.61585 14.46169 16.26744
535 0.000000 47.31560 36.12750 8.613845 14.26818 12.40482
536 15.90880 49.84460 35.51230 10.14858 16.10898 12.32244
537 49.20130 85.83530 16.14040 33.83908 54.63155 11.32667
538 67.26910 90.32810 25.01280 45.91492 65.00796 15.00727
539 25.82070 86.16840 13.17650 27.65178 51.74838 10.42848
540 35.88350 100.0000 27.08170 40.95712 73.98160 17.58832
541 53.11420 0.000000 84.74020 22.45175 10.37243 65.85341
542 60.33480 31.14000 85.23610 28.91190 17.86221 66.92688
543 72.29460 39.36900 85.38270 37.39370 25.02088 68.81408
544 87.41140 39.80220 88.60900 49.26115 31.30331 75.67067
545 89.20700 56.83530 87.88720 55.76189 42.50146 75.89021
546 35.09560 3.087300 46.86120 7.740422 3.820213 18.22544
547 36.38840 17.40660 50.81600 9.777216 5.979862 22.67786
548 29.03150 23.74250 42.51280 7.350630 6.050261 15.39122
549 56.26990 49.91010 57.98600 24.18368 23.23492 30.92261
550 83.90300 70.36490 64.39570 50.82383 49.63592 41.88079
551 86.85950 80.55140 70.07520 59.61463 62.30876 51.18086
552 66.44530 37.55850 8.214000 20.93344 17.13469 3.105478
553 78.19650 39.97630 29.40910 30.22879 22.90286 9.580513
554 87.64460 52.51910 28.25880 40.45384 33.68764 10.51407
555 51.80560 63.29270 49.80200 26.35288 32.47338 24.89696
556 52.97150 65.03530 62.18790 29.63371 34.80799 37.96625
557 20.01970 9.849200 86.25510 14.52354 6.651050 67.67797
558 29.53450 21.49460 86.97370 17.31180 9.613032 69.38552
559 28.00500 17.00120 100.0000 21.76551 10.49649 97.65097
560 81.42990 24.92360 100.0000 46.76352 25.20170 98.75836
561 62.44220 0.000000 65.77270 22.27934 10.87622 39.31163
562 72.66100 16.64120 68.81330 29.43706 15.94465 43.40760
563 75.93410 26.26440 84.44860 37.30619 21.28790 66.52905
564 15.56340 6.827100 40.43680 3.679961 1.962315 13.61284
565 17.56390 12.27850 61.95040 7.998592 4.230780 33.72847
566 16.57340 32.80350 65.58740 11.37715 9.853541 39.06878
567 18.56650 43.30100 67.22370 14.35562 14.95223 41.79035
568 24.10080 66.55110 67.59730 23.56077 32.61985 44.36628
569 14.70110 65.09340 72.76920 23.09600 31.07570 51.80317
570 48.31740 69.89260 72.84600 32.78332 39.46899 52.51546
571 62.14480 70.53650 76.54480 40.48322 43.95649 57.90140
572 55.57590 31.34960 39.28800 16.39208 12.59451 13.53167
573 71.40750 41.64430 55.12420 29.95128 22.78168 28.01454
574 87.43200 51.20300 56.00510 43.85204 34.51244 30.02649
575 30.58890 11.89430 6.275500 3.813479 2.734701 0.959846
576 49.94830 14.98380 7.083500 9.911097 6.326432 1.413393
577 64.91040 13.39270 54.86820 21.65607 11.82827 26.38773
578 75.63360 46.09100 72.00970 37.55889 28.16980 49.17871
579 59.44660 41.44390 64.03380 25.35850 20.06137 38.11085
580 59.63560 63.19600 77.24740 36.16137 36.54670 58.23540
581 73.64280 90.23960 82.33760 60.00316 71.15362 70.42068
582 90.05800 90.38600 81.67990 71.79513 77.48745 70.01976
583 23.79780 14.81820 9.069500 2.804967 2.482277 1.294412
584 30.27020 15.64490 16.72060 4.435727 3.435274 2.878196
585 59.45220 29.51760 29.06890 17.31359 12.73517 8.139626
586 88.35260 52.03930 67.02930 47.54476 36.55968 43.54246
587 100.0000 84.38630 74.89370 75.33810 74.03269 59.44333
588 100.0000 89.22690 88.84170 82.89035 82.41613 83.07852
END_DATA
CAL    

DESCRIPTOR "Argyll Device Calibration State"
ORIGINATOR "Argyll dispread"
CREATED "Tue May 26 13:21:48 2020"
DEVICE_CLASS "DISPLAY"
COLOR_REP "RGB"

BEGIN_ARGYLL_DISPCAL_ARGS
-v2 -ql -m -w0.3127,0.329 -gs -f1.0 -k0 -A4.0 -d1 -c1 -yn -P0.475468687675,0.649334945586,2.11251980983 -F
END_ARGYLL_DISPCAL_ARGS


NUMBER_OF_FIELDS 4
BEGIN_DATA_FORMAT
RGB_I RGB_R RGB_G RGB_B
END_DATA_FORMAT

NUMBER_OF_SETS 256
BEGIN_DATA
0.00000000 0.00000000 0.00000000 0.00000000
0.00392157 0.00497882 0.00484541 0.00435822
0.00784314 0.00993753 0.00966734 0.00869088
0.01176470 0.01487630 0.01446600 0.01299820
0.01568630 0.01979510 0.01924150 0.01728040
0.01960780 0.02469430 0.02399400 0.02153770
0.02352940 0.02957380 0.02872370 0.02577040
0.02745100 0.03443410 0.03343110 0.02997850
0.03137250 0.03927950 0.03811560 0.03416290
0.03529410 0.04409590 0.04276370 0.03831930
0.03921570 0.04887820 0.04736790 0.04245400
0.04313730 0.05364310 0.05193530 0.04656110
0.04705880 0.05839600 0.05645280 0.05062720
0.05098040 0.06310730 0.06089500 0.05464470
0.05490200 0.06774700 0.06524600 0.05859140
0.05882350 0.07229370 0.06950520 0.06245690
0.06274510 0.07675570 0.07368040 0.06625250
0.06666670 0.08114910 0.07777850 0.06999440
0.07058820 0.08547410 0.08180480 0.07368880
0.07450980 0.08974180 0.08576950 0.07733370
0.07843140 0.09395570 0.08967900 0.08093250
0.08235290 0.09811430 0.09353690 0.08448610
0.08627450 0.10221500 0.09734110 0.08800010
0.09019610 0.10625300 0.10109400 0.09148470
0.09411760 0.11023000 0.10480300 0.09494120
0.09803920 0.11414600 0.10847300 0.09836900
0.10196100 0.11800400 0.11210900 0.10176700
0.10588200 0.12181200 0.11571500 0.10514400
0.10980400 0.12557900 0.11929500 0.10850700
0.11372500 0.12931600 0.12285400 0.11187000
0.11764700 0.13302600 0.12639300 0.11524400
0.12156900 0.13670900 0.12990800 0.11864100
0.12549000 0.14036900 0.13339700 0.12205900
0.12941200 0.14401100 0.13686600 0.12549000
0.13333300 0.14765300 0.14033100 0.12893100
0.13725500 0.15130000 0.14379700 0.13237800
0.14117600 0.15496300 0.14726700 0.13582700
0.14509800 0.15865000 0.15074900 0.13927900
0.14902000 0.16235900 0.15423800 0.14273000
0.15294100 0.16608500 0.15773400 0.14618100
0.15686300 0.16983200 0.16123800 0.14963000
0.16078400 0.17359600 0.16474500 0.15307400
0.16470600 0.17737900 0.16825600 0.15650700
0.16862700 0.18117200 0.17176500 0.15992700
0.17254900 0.18496100 0.17526500 0.16332100
0.17647100 0.18873400 0.17875100 0.16668100
0.18039200 0.19247500 0.18221800 0.17000900
0.18431400 0.19617500 0.18565500 0.17329700
0.18823500 0.19983100 0.18905900 0.17655100
0.19215700 0.20344600 0.19243200 0.17977500
0.19607800 0.20701400 0.19577200 0.18297300
0.20000000 0.21053600 0.19908000 0.18615800
0.20392200 0.21400900 0.20235700 0.18933000
0.20784300 0.21743900 0.20560900 0.19249100
0.21176500 0.22083000 0.20883900 0.19564400
0.21568600 0.22418600 0.21204600 0.19879700
0.21960800 0.22752500 0.21523800 0.20195200
0.22352900 0.23085500 0.21841900 0.20511300
0.22745100 0.23417900 0.22159100 0.20827800
0.23137300 0.23750400 0.22475500 0.21144800
0.23529400 0.24084100 0.22792100 0.21462900
0.23921600 0.24418900 0.23109300 0.21782400
0.24313700 0.24754900 0.23427200 0.22102500
0.24705900 0.25093300 0.23746400 0.22423300
0.25098000 0.25436200 0.24068600 0.22745900
0.25490200 0.25784400 0.24394500 0.23070600
0.25882400 0.26137600 0.24724000 0.23397500
0.26274500 0.26495700 0.25057300 0.23726400
0.26666700 0.26858700 0.25394000 0.24057000
0.27058800 0.27226300 0.25733600 0.24388700
0.27451000 0.27598500 0.26075600 0.24721100
0.27843100 0.27974900 0.26420300 0.25054500
0.28235300 0.28354500 0.26767500 0.25388600
0.28627500 0.28737000 0.27116300 0.25723300
0.29019600 0.29120700 0.27465900 0.26058500
0.29411800 0.29505100 0.27815200 0.26394200
0.29803900 0.29889100 0.28163900 0.26729900
0.30196100 0.30272800 0.28511300 0.27064700
0.30588200 0.30655700 0.28857600 0.27398800
0.30980400 0.31037900 0.29202700 0.27732100
0.31372500 0.31419600 0.29546700 0.28064900
0.31764700 0.31799500 0.29890000 0.28396700
0.32156900 0.32177700 0.30232000 0.28726900
0.32549000 0.32554200 0.30573200 0.29055100
0.32941200 0.32928700 0.30913800 0.29380600
0.33333300 0.33301600 0.31253700 0.29703500
0.33725500 0.33673300 0.31593300 0.30023800
0.34117600 0.34042900 0.31933400 0.30341900
0.34509800 0.34410300 0.32273900 0.30657600
0.34902000 0.34775400 0.32614700 0.30970800
0.35294100 0.35138300 0.32955600 0.31281500
0.35686300 0.35500100 0.33296800 0.31589700
0.36078400 0.35861900 0.33638400 0.31895200
0.36470600 0.36224500 0.33981400 0.32198900
0.36862700 0.36588000 0.34326000 0.32501800
0.37254900 0.36951800 0.34672400 0.32804700
0.37647100 0.37316200 0.35020000 0.33107600
0.38039200 0.37682000 0.35368500 0.33410800
0.38431400 0.38050100 0.35717700 0.33714600
0.38823500 0.38420300 0.36068100 0.34019700
0.39215700 0.38792300 0.36419700 0.34327100
0.39607800 0.39165700 0.36772100 0.34637500
0.40000000 0.39539200 0.37125300 0.34951300
0.40392200 0.39912400 0.37478000 0.35268400
0.40784300 0.40284900 0.37830000 0.35588600
0.41176500 0.40655200 0.38180900 0.35911500
0.41568600 0.41022800 0.38530100 0.36237200
0.41960800 0.41387700 0.38876900 0.36565100
0.42352900 0.41749200 0.39221100 0.36895100
0.42745100 0.42108000 0.39562200 0.37226900
0.43137300 0.42464500 0.39900200 0.37559000
0.43529400 0.42818400 0.40235800 0.37891400
0.43921600 0.43170700 0.40569300 0.38224300
0.44313700 0.43522400 0.40900700 0.38557600
0.44705900 0.43874300 0.41231700 0.38891300
0.45098000 0.44225400 0.41562900 0.39224500
0.45490200 0.44575900 0.41894200 0.39557300
0.45882400 0.44927700 0.42225100 0.39888800
0.46274500 0.45281600 0.42556100 0.40219400
0.46666700 0.45638000 0.42888000 0.40549400
0.47058800 0.45996800 0.43220800 0.40878700
0.47451000 0.46357500 0.43555000 0.41207200
0.47843100 0.46720500 0.43890600 0.41535200
0.48235300 0.47084800 0.44228000 0.41862800
0.48627500 0.47450600 0.44567400 0.42189800
0.49019600 0.47818100 0.44909000 0.42516900
0.49411800 0.48186900 0.45253300 0.42845400
0.49803900 0.48556100 0.45599400 0.43176300
0.50196100 0.48925400 0.45947000 0.43510200
0.50588200 0.49294900 0.46296000 0.43846800
0.50980400 0.49664600 0.46646600 0.44186000
0.51372500 0.50035500 0.46998800 0.44527800
0.51764700 0.50408200 0.47353300 0.44872700
0.52156900 0.50782500 0.47710600 0.45220700
0.52549000 0.51158500 0.48069500 0.45571300
0.52941200 0.51536200 0.48430000 0.45924500
0.53333300 0.51915600 0.48791900 0.46280200
0.53725500 0.52297400 0.49155400 0.46638500
0.54117600 0.52682300 0.49520400 0.46999700
0.54509800 0.53070900 0.49886900 0.47364000
0.54902000 0.53462400 0.50255700 0.47730400
0.55294100 0.53856000 0.50627300 0.48097500
0.55686300 0.54251700 0.51001000 0.48463400
0.56078400 0.54648900 0.51376100 0.48827600
0.56470600 0.55046300 0.51752700 0.49189900
0.56862700 0.55444300 0.52130600 0.49550800
0.57254900 0.55843500 0.52509200 0.49910100
0.57647100 0.56244200 0.52889200 0.50267800
0.58039200 0.56644900 0.53271300 0.50624600
0.58431400 0.57045000 0.53655800 0.50980200
0.58823500 0.57444100 0.54042000 0.51333800
0.59215700 0.57840500 0.54429600 0.51685800
0.59607800 0.58233500 0.54817000 0.52035900
0.60000000 0.58623300 0.55203100 0.52383800
0.60392200 0.59010900 0.55586700 0.52729900
0.60784300 0.59397600 0.55968400 0.53074500
0.61176500 0.59784900 0.56348900 0.53419100
0.61568600 0.60172600 0.56728700 0.53764000
0.61960800 0.60560200 0.57108100 0.54109500
0.62352900 0.60947600 0.57486800 0.54457000
0.62745100 0.61334300 0.57864700 0.54807000
0.63137300 0.61719100 0.58241800 0.55159300
0.63529400 0.62102500 0.58617200 0.55513000
0.63921600 0.62484800 0.58991300 0.55867800
0.64313700 0.62867000 0.59365000 0.56222500
0.64705900 0.63249500 0.59738800 0.56577900
0.65098000 0.63632100 0.60113200 0.56935000
0.65490200 0.64015300 0.60488900 0.57293600
0.65882400 0.64398800 0.60866700 0.57653800
0.66274500 0.64783200 0.61247100 0.58015800
0.66666700 0.65167900 0.61630300 0.58380200
0.67058800 0.65552900 0.62015500 0.58746200
0.67451000 0.65938100 0.62402500 0.59112900
0.67843100 0.66323200 0.62790500 0.59480500
0.68235300 0.66708300 0.63179300 0.59849000
0.68627500 0.67094700 0.63569000 0.60218300
0.69019600 0.67482100 0.63958900 0.60587600
0.69411800 0.67870500 0.64347600 0.60955900
0.69803900 0.68259600 0.64735000 0.61323200
0.70196100 0.68650200 0.65120600 0.61689500
0.70588200 0.69041600 0.65503700 0.62054600
0.70980400 0.69432900 0.65883300 0.62417900
0.71372500 0.69824200 0.66259400 0.62779000
0.71764700 0.70215500 0.66632500 0.63137900
0.72156900 0.70606300 0.67002800 0.63494400
0.72549000 0.70996900 0.67370600 0.63849000
0.72941200 0.71387100 0.67736500 0.64202800
0.73333300 0.71778200 0.68101000 0.64555900
0.73725500 0.72171200 0.68466000 0.64907500
0.74117600 0.72564900 0.68831600 0.65257100
0.74509800 0.72957900 0.69196700 0.65604000
0.74902000 0.73348700 0.69560800 0.65948200
0.75294100 0.73736300 0.69923100 0.66290100
0.75686300 0.74120100 0.70283600 0.66630400
0.76078400 0.74500500 0.70642900 0.66969200
0.76470600 0.74878000 0.71001000 0.67307000
0.76862700 0.75254000 0.71358200 0.67643600
0.77254900 0.75631800 0.71717000 0.67980200
0.77647100 0.76011500 0.72078300 0.68317400
0.78039200 0.76393400 0.72442300 0.68655300
0.78431400 0.76777000 0.72808700 0.68994900
0.78823500 0.77162000 0.73176400 0.69335600
0.79215700 0.77549500 0.73546100 0.69676800
0.79607800 0.77940000 0.73918200 0.70018400
0.80000000 0.78334100 0.74293200 0.70360900
0.80392200 0.78732200 0.74671900 0.70704700
0.80784300 0.79135100 0.75054600 0.71050300
0.81176500 0.79542400 0.75441100 0.71398500
0.81568600 0.79953800 0.75830400 0.71749600
0.81960800 0.80367900 0.76222300 0.72103800
0.82352900 0.80783300 0.76615300 0.72460500
0.82745100 0.81200000 0.77009100 0.72819600
0.83137300 0.81617200 0.77403500 0.73180700
0.83529400 0.82034500 0.77798000 0.73542300
0.83921600 0.82451800 0.78192700 0.73904100
0.84313700 0.82869700 0.78588200 0.74266400
0.84705900 0.83288500 0.78985200 0.74630400
0.85098000 0.83708700 0.79383800 0.74996900
0.85490200 0.84129900 0.79783900 0.75365600
0.85882400 0.84552800 0.80185200 0.75735900
0.86274500 0.84977700 0.80588400 0.76108100
0.86666700 0.85405200 0.80994000 0.76482200
0.87058800 0.85835200 0.81402200 0.76858100
0.87451000 0.86265200 0.81812200 0.77235400
0.87843100 0.86694900 0.82221900 0.77613600
0.88235300 0.87123700 0.82631300 0.77992500
0.88627500 0.87551300 0.83040200 0.78372200
0.89019600 0.87978700 0.83449100 0.78753300
0.89411800 0.88406000 0.83858900 0.79136700
0.89803900 0.88831500 0.84268900 0.79523800
0.90196100 0.89256400 0.84678000 0.79913000
0.90588200 0.89682300 0.85087900 0.80303400
0.90980400 0.90109100 0.85497900 0.80695600
0.91372500 0.90536200 0.85907800 0.81089500
0.91764700 0.90963800 0.86318100 0.81484900
0.92156900 0.91391000 0.86729000 0.81881400
0.92549000 0.91817000 0.87139800 0.82277900
0.92941200 0.92242800 0.87550800 0.82675000
0.93333300 0.92669500 0.87962300 0.83073200
0.93725500 0.93097000 0.88375200 0.83473100
0.94117600 0.93525900 0.88789600 0.83874800
0.94509800 0.93955900 0.89205000 0.84279100
0.94902000 0.94385400 0.89620300 0.84684800
0.95294100 0.94814700 0.90035800 0.85091300
0.95686300 0.95242900 0.90451200 0.85499500
0.96078400 0.95671000 0.90867200 0.85908600
0.96470600 0.96099500 0.91283500 0.86319400
0.96862700 0.96527600 0.91700200 0.86731900
0.97254900 0.96955600 0.92117000 0.87145700
0.97647100 0.97384300 0.92534500 0.87561000
0.98039200 0.97813500 0.92952600 0.87977700
0.98431400 0.98243400 0.93371300 0.88395900
0.98823500 0.98673900 0.93790600 0.88815600
0.99215700 0.99105000 0.94210600 0.89236600
0.99607800 0.99536800 0.94631200 0.89659200
1.00000000 0.99969200 0.95052500 0.90083300
END_DATA
