CTI3   

DESCRIPTOR "Argyll Calibration Target chart information 3"
ORIGINATOR "Argyll dispread"
CREATED "Tue Feb 09 09:39:42 2021"
DEVICE_CLASS "DISPLAY"
SINGLE_DIM_STEPS "17"
COMP_GREY_STEPS "49"
DARK_REGION_EMPHASIS "1.6"
COLOR_REP "RGB_XYZ"
TARGET_INSTRUMENT "X-Rite i1 DisplayPro, ColorMunki Display"
DISPLAY_TYPE_REFRESH "NO"
DISPLAY_TYPE_BASE_ID "1"
INSTRUMENT_TYPE_SPECTRAL "NO"
LUMINANCE_XYZ_CDM2 "72.800047 80.398770 85.663180"
NORMALIZED_TO_Y_100 "YES"
VIDEO_LUT_CALIBRATION_POSSIBLE "YES"

BEGIN_ARGYLL_COLPROF_ARGS
-v -qh -aX -bn -C "No copyright. Created with DisplayCAL 3.8.9.3 and ArgyllCMS 2.1.2" -M "KOIOS K2418U"
END_ARGYLL_COLPROF_ARGS

OBSERVER "1931_2"
USE_BLACK_POINT_COMPENSATION "NO"
BLACK_POINT_CORRECTION "0.0"
HIRES_B2A "YES"
HIRES_B2A_SIZE "-1"
SMOOTH_B2A "YES"
PATCH_SEQUENCE "OPTIMIZE_DISPLAY_RESPONSE_DELAY"

NUMBER_OF_FIELDS 7
BEGIN_DATA_FORMAT
SAMPLE_ID RGB_R RGB_G RGB_B XYZ_X XYZ_Y XYZ_Z
END_DATA_FORMAT

NUMBER_OF_SETS 417
BEGIN_DATA
1 100.0000 100.0000 100.0000 90.54871 100.0000 106.5479
2 1.960800 1.960800 1.960800 0.600274 0.625673 0.901115
3 3.921600 3.921600 3.921600 0.810805 0.866766 1.125706
4 5.882400 5.882400 5.882400 1.085442 1.157768 1.434237
5 9.803900 9.803900 9.803900 1.753511 1.880865 2.332138
6 13.72600 13.72600 13.72600 2.904982 3.127887 3.695479
7 17.64700 17.64700 17.64700 4.348707 4.718335 5.183325
8 21.56900 21.56900 21.56900 6.040296 6.522667 7.163387
9 25.49000 25.49000 25.49000 8.100274 8.710528 9.532266
10 29.41200 29.41200 29.41200 10.22886 11.01667 11.85462
11 33.33300 33.33300 33.33300 12.97126 13.96234 15.17936
12 37.25500 37.25500 37.25500 16.17702 17.27454 18.53954
13 41.17600 41.17600 41.17600 19.64403 20.87412 22.44095
14 45.09800 45.09800 45.09800 22.77071 24.47858 26.38276
15 49.02000 49.02000 49.02000 26.57235 28.55334 30.97012
16 52.94100 52.94100 52.94100 29.89653 31.77178 34.10768
17 56.86300 56.86300 56.86300 34.21905 36.49142 38.99009
18 60.78400 60.78400 60.78400 37.82200 40.48257 43.69083
19 64.70600 64.70600 64.70600 41.93951 45.17160 48.99671
20 68.62700 68.62700 68.62700 46.96529 50.74961 53.27422
21 72.54900 72.54900 72.54900 50.96517 55.43484 58.02583
22 76.47100 76.47100 76.47100 55.94275 60.16104 65.13020
23 80.39200 80.39200 80.39200 60.81408 66.56558 70.13407
24 84.31400 84.31400 84.31400 67.02543 73.32221 77.25369
25 88.23500 88.23500 88.23500 71.40168 77.89857 82.23441
26 92.15700 92.15700 92.15700 77.80311 84.88356 89.35496
27 96.07800 96.07800 96.07800 83.28598 91.97976 97.67493
28 46.80590 77.17000 45.98820 40.36930 55.92439 31.07693
29 53.18360 90.30550 67.07330 53.49276 72.60451 53.46897
30 15.95780 64.85740 50.78490 28.20921 39.83827 35.30435
31 25.64800 69.55200 64.46890 34.93868 45.63797 49.51755
32 71.58170 79.07660 100.0000 62.54384 63.53502 108.7272
33 17.57030 30.83040 48.99300 11.89497 11.22961 30.63983
34 83.10930 53.02840 49.19880 42.43702 39.59834 30.09437
35 87.00220 72.65720 59.14700 55.66044 59.08942 42.39053
36 100.0000 81.85210 75.80590 71.87579 74.50134 62.91124
37 100.0000 100.0000 84.12780 85.75090 99.36140 77.77227
38 0.000000 19.73150 15.46530 3.181800 4.591377 4.533887
39 0.000000 20.84230 26.75900 4.499371 5.241202 10.56790
40 0.000000 56.56590 38.47190 20.21148 30.46049 21.79433
41 38.31890 61.21090 48.32770 29.58199 37.43414 31.52692
42 13.52780 26.22320 13.03870 5.526623 8.050307 3.892142
43 23.33700 61.33650 13.63190 23.20005 36.50485 9.162215
44 28.59510 65.20110 30.49470 27.45565 41.03794 17.23428
45 28.78900 77.98440 47.48360 37.35695 54.72384 32.94452
46 35.83570 77.06330 59.53180 40.09154 55.17898 45.09086
47 47.60340 90.15250 77.74000 54.16965 72.18371 66.92516
48 76.08700 0.000000 0.000000 26.25507 15.55333 1.572774
49 87.20930 0.000000 0.000000 32.55651 19.48140 1.904340
50 100.0000 0.000000 100.0000 59.40562 28.69469 110.0809
51 100.0000 27.69340 100.0000 60.29821 33.72654 108.4971
52 0.000000 0.000000 0.000000 0.413821 0.407821 0.676804
53 0.000000 2.941200 0.000000 0.552225 0.659420 0.729422
54 0.000000 6.097600 0.000000 0.793812 1.105890 0.797786
55 0.000000 17.12330 0.000000 2.261866 3.816351 1.199291
56 0.000000 21.42860 0.000000 3.188699 5.526516 1.394621
57 0.000000 26.11940 0.000000 4.442432 7.821611 1.760540
58 0.000000 31.25000 0.000000 5.956207 10.39782 2.241799
59 0.000000 36.88520 0.000000 8.009158 14.10509 2.796849
60 0.000000 43.10350 0.000000 10.95564 19.32066 3.686257
61 0.000000 50.00000 0.000000 14.43917 25.23134 4.754108
62 0.000000 57.69230 0.000000 18.68128 32.21024 6.048906
63 0.000000 61.89340 0.000000 21.34011 36.03534 7.026595
64 0.000000 66.32650 0.000000 24.27928 41.22079 7.942263
65 33.63570 79.07860 0.000000 35.93388 56.64993 11.10570
66 25.17100 19.46700 9.898900 5.657899 6.026442 2.545108
67 35.74180 22.52800 23.07030 9.882828 8.620301 8.049379
68 51.85100 25.07040 24.34720 16.73008 13.17237 8.460589
69 58.95930 25.14450 34.00930 20.60469 15.05311 14.51308
70 68.94850 41.64960 33.46370 29.45764 26.87685 15.14776
71 91.26100 43.63860 59.58640 46.41933 36.10130 41.87739
72 100.0000 50.78590 75.98430 57.97106 44.67077 62.38628
73 0.000000 0.000000 0.000000 0.416409 0.407880 0.689382
74 0.000000 0.000000 9.493700 0.725738 0.502815 2.293388
75 0.000000 0.000000 13.15790 1.014938 0.587306 3.864543
76 0.000000 0.000000 43.10350 5.885939 2.058798 29.20821
77 0.000000 0.000000 50.00000 7.613240 2.584430 38.04838
78 0.000000 0.000000 57.69230 9.693190 3.235229 48.24565
79 0.000000 0.000000 66.32650 11.96098 3.934969 59.56892
80 0.000000 0.000000 76.08700 14.92735 4.869677 73.95839
81 100.0000 68.90740 100.0000 72.84284 60.83975 107.1062
82 100.0000 100.0000 100.0000 90.54871 100.0000 106.5479
83 0.957900 0.957900 0.957900 0.484794 0.485887 0.769661
84 1.938000 1.938000 1.938000 0.601097 0.625339 0.901588
85 2.941200 2.941200 2.941200 0.682498 0.684675 1.011837
86 3.968300 3.968300 3.968300 0.811467 0.866882 1.127029
87 5.020100 5.020100 5.020100 0.960370 1.007630 1.362570
88 6.097600 6.097600 6.097600 1.151379 1.224579 1.523551
89 7.201600 7.201600 7.201600 1.228840 1.307505 1.684828
90 8.333300 8.333300 8.333300 1.462294 1.577739 1.908047
91 38.26850 92.47200 9.915300 46.64698 75.51500 15.79604
92 74.35290 100.0000 21.89680 64.44462 93.34495 21.14720
93 100.0000 100.0000 100.0000 90.52711 100.0524 106.7855
94 13.15790 13.15790 13.15790 2.798609 3.012021 3.620792
95 14.44440 14.44440 14.44440 3.218982 3.477375 3.919868
96 15.76580 15.76580 15.76580 3.626445 3.853519 4.516724
97 17.12330 17.12330 17.12330 4.190394 4.512895 5.102920
98 18.51850 18.51850 18.51850 4.629528 4.895296 5.591710
99 19.95310 19.95310 19.95310 5.275834 5.656680 6.583602
100 21.42860 21.42860 21.42860 6.037247 6.516530 7.176381
101 22.94690 22.94690 22.94690 6.792285 7.191598 8.241279
102 24.50980 24.50980 24.50980 7.293108 7.890634 8.584875
103 26.11940 26.11940 26.11940 8.484967 8.965687 9.911410
104 27.77780 27.77780 27.77780 9.453858 10.02790 10.79228
105 29.48720 29.48720 29.48720 10.23235 11.01597 11.87657
106 31.25000 31.25000 31.25000 11.63793 12.37043 13.24202
107 33.06880 33.06880 33.06880 12.79611 13.67488 14.74783
108 34.94620 34.94620 34.94620 14.07262 14.92857 16.01350
109 36.88520 36.88520 36.88520 15.88844 16.90234 18.16833
110 38.88890 38.88890 38.88890 17.19290 18.24946 19.55496
111 40.96050 40.96050 40.96050 19.24096 20.44723 22.02225
112 43.10350 43.10350 43.10350 20.72211 22.07848 23.70895
113 45.32160 45.32160 45.32160 22.97425 24.72775 26.89831
114 47.61910 47.61910 47.61910 25.03401 26.55502 28.59253
115 50.00000 50.00000 50.00000 27.38597 29.04810 31.23411
116 52.46910 52.46910 52.46910 29.53085 31.60222 34.10278
117 55.03140 55.03140 55.03140 32.09738 34.57524 37.69538
118 57.69230 57.69230 57.69230 34.87152 37.38097 40.38462
119 60.45750 60.45750 60.45750 37.53652 39.90811 43.11369
120 63.33330 63.33330 63.33330 40.88122 44.26694 46.73902
121 66.32650 66.32650 66.32650 43.76858 47.09092 50.82520
122 69.44440 69.44440 69.44440 47.26896 50.83695 55.08943
123 72.69500 72.69500 72.69500 50.93490 55.45201 57.94746
124 76.08700 76.08700 76.08700 55.30782 59.43356 64.56610
125 79.62960 79.62960 79.62960 59.43521 64.99496 68.61487
126 83.33330 83.33330 83.33330 65.30883 71.41813 75.25158
127 87.20930 87.20930 87.20930 69.87837 75.73422 82.58197
128 0.000000 14.71860 48.54340 7.485174 4.179401 32.15680
129 15.44330 14.77990 57.64030 10.69769 5.305224 43.66302
130 21.44460 75.36980 88.93270 44.51242 52.86334 88.73148
131 0.000000 78.11320 80.88610 42.32565 54.50542 73.19149
132 0.000000 100.0000 85.06420 59.81069 86.39577 82.20596
133 37.40460 100.0000 90.72900 63.69565 87.76525 89.97006
134 57.68900 100.0000 100.0000 71.83268 90.40043 108.8002
135 48.31930 18.74350 0.000000 13.38376 10.02367 1.469629
136 50.53890 21.55930 37.93470 17.11941 11.80668 18.76776
137 85.75690 22.90050 39.70470 35.24417 22.88399 19.56930
138 100.0000 30.71510 55.54360 48.97101 32.51309 35.84924
139 0.000000 100.0000 0.000000 49.47068 86.63851 17.14391
140 30.47860 100.0000 22.69650 51.89319 87.30957 21.56092
141 38.14540 100.0000 52.57010 56.05057 87.44398 41.15013
142 41.60690 100.0000 74.99940 60.34548 87.76208 66.38333
143 75.03580 100.0000 90.58270 74.08197 92.87743 87.76970
144 10.13040 33.44240 28.25310 8.651993 12.01058 11.66558
145 62.43460 36.82070 75.01430 32.64323 23.45990 60.05344
146 0.000000 100.0000 49.93430 52.32282 86.09943 38.10464
147 0.000000 100.0000 68.05060 55.67359 86.44950 56.97756
148 100.0000 0.000000 32.49960 42.21234 24.58115 13.27847
149 100.0000 0.000000 46.08220 44.10733 24.79933 25.52029
150 100.0000 0.000000 60.94670 47.12423 25.44039 42.43670
151 100.0000 0.000000 79.86580 52.23984 26.82043 70.44726
152 100.0000 48.77090 100.0000 65.26967 44.78288 109.0796
153 49.34470 13.46180 43.06780 16.86512 9.457702 24.37179
154 59.72040 16.55090 64.00800 26.06905 14.02016 47.94004
155 81.05700 29.08020 63.38950 37.84074 24.43410 45.78922
156 68.08280 0.000000 15.87450 22.10105 12.61990 4.174639
157 76.47690 14.26140 15.33200 27.18229 17.05559 4.561308
158 84.37750 13.09960 25.99920 32.00083 19.55142 9.090728
159 100.0000 44.75690 24.10160 48.44878 39.79113 10.65697
160 100.0000 62.11240 26.08960 54.66308 52.49939 14.29516
161 100.0000 100.0000 60.57030 80.99278 99.48148 46.31858
162 22.63750 47.25890 16.48560 15.07726 23.01716 7.352205
163 24.50890 58.07630 37.46380 23.25837 33.29374 21.26679
164 0.000000 57.53600 100.0000 38.00518 34.85949 113.1119
165 0.000000 71.52910 100.0000 45.01881 47.59245 112.0367
166 34.18260 77.73460 100.0000 51.30471 55.95838 111.3720
167 54.58170 87.39970 100.0000 61.66005 71.64976 109.5863
168 48.47990 0.000000 67.67630 21.79383 9.422198 55.96505
169 53.97820 29.70030 82.66620 30.02324 18.35599 74.19050
170 0.000000 33.59450 34.66990 9.039973 12.14252 16.02149
171 22.19080 34.51610 36.15880 11.48799 13.40002 17.57555
172 34.35170 35.48700 50.90110 16.96155 15.66089 32.11186
173 36.54390 30.82030 62.93650 19.06390 14.24321 46.26685
174 49.78170 42.93230 85.74700 33.28684 25.38523 80.64094
175 70.75850 45.00270 100.0000 47.43462 32.99568 110.5726
176 0.000000 79.39530 54.78280 37.20853 55.14005 40.32554
177 20.17130 87.37610 70.61770 47.56361 68.16965 57.73996
178 19.93800 88.83490 83.89590 51.51999 69.53846 79.68571
179 29.57190 92.78000 100.0000 60.49977 75.80272 110.8557
180 0.000000 33.09960 21.31010 7.428758 11.52524 7.857203
181 0.000000 48.83160 20.51940 14.28290 23.60520 9.069243
182 0.000000 74.21280 23.68130 30.13466 49.22180 15.33097
183 0.000000 100.0000 29.86750 50.49952 86.53219 24.95147
184 27.13480 47.66590 0.000000 15.58074 23.74705 4.269118
185 100.0000 49.44380 0.000000 49.20691 43.23184 6.007871
186 100.0000 75.01110 0.000000 60.73557 65.61245 10.63695
187 100.0000 81.25240 29.78270 65.88162 73.87607 20.35811
188 38.70020 33.62710 0.000000 13.12925 15.02014 2.546645
189 56.95050 37.91800 13.79020 21.77926 21.49115 5.465123
190 75.66500 43.52660 21.95000 32.15965 29.67911 9.017386
191 9.493700 0.000000 0.000000 0.971528 0.722942 0.711459
192 11.83560 6.926300 29.15620 3.628633 2.014654 12.43316
193 22.93330 36.69630 66.00800 18.40414 16.35646 49.98755
194 26.54880 48.93890 88.09010 31.15318 27.53874 87.09199
195 49.96720 67.46850 89.37920 45.14193 46.33342 88.37575
196 0.000000 76.08700 0.000000 30.98014 52.65074 10.23000
197 0.000000 87.20930 0.000000 39.30741 67.38070 13.19281
198 27.91990 87.83250 35.90320 43.36262 68.92034 25.89160
199 64.10670 89.44360 55.05260 53.89268 72.94860 41.29353
200 70.68530 100.0000 74.69190 68.88740 91.92290 64.43158
201 23.13630 0.000000 28.50360 5.179201 2.448083 12.11148
202 31.39330 0.000000 76.75310 18.85226 7.042679 72.04384
203 33.69860 0.000000 100.0000 28.97359 10.25697 119.9280
204 37.75590 34.38730 100.0000 32.61162 19.43352 111.9897
205 0.000000 0.000000 87.20930 19.26511 6.215955 95.66155
206 0.000000 0.000000 100.0000 25.06695 8.049002 123.7327
207 0.000000 15.56250 100.0000 25.01550 9.283060 119.9722
208 0.000000 29.81520 100.0000 26.69854 14.11510 115.0637
209 0.000000 43.24750 100.0000 30.65928 22.26060 112.7762
210 0.000000 85.73360 100.0000 54.52875 66.52490 111.7366
211 0.000000 100.0000 100.0000 64.51529 87.13764 111.2211
212 42.06660 60.95810 60.43170 32.07997 37.71286 43.79120
213 50.63280 72.88060 65.91920 42.41165 51.67199 51.63206
214 66.88920 85.40330 77.88710 57.45693 70.50196 66.37387
215 100.0000 87.02650 100.0000 81.19262 80.11191 106.8295
216 83.08860 15.12570 67.99950 37.92169 20.91703 51.42034
217 100.0000 27.68160 73.72040 52.22071 31.88058 58.00449
218 28.48060 78.81260 19.14200 34.96672 55.42268 14.31495
219 50.35520 83.82580 35.89860 44.72952 65.08764 24.51760
220 70.41720 84.47930 65.41100 55.73211 69.40737 50.07170
221 88.54060 89.43430 65.51640 67.14923 79.20063 50.06164
222 85.61820 22.94430 10.43820 32.64805 22.62942 3.936164
223 88.48870 26.85510 28.32060 35.70901 24.94545 10.95208
224 57.69230 0.000000 0.000000 16.84485 9.644330 1.119545
225 66.32650 0.000000 0.000000 21.58407 12.54170 1.346000
226 85.27740 40.70330 9.459000 37.02354 31.85520 5.547271
227 92.24130 47.60120 36.47890 44.42252 38.36622 18.84726
228 100.0000 57.62400 63.02050 57.45216 49.28077 44.81693
229 0.000000 0.000000 0.000000 0.417307 0.408801 0.691617
230 19.50100 8.223900 11.25350 3.009969 2.316911 2.674853
231 56.82630 28.89990 13.24950 19.16642 16.17130 4.391145
232 75.31370 32.28590 22.24750 29.70657 23.45766 8.296737
233 0.000000 9.675900 14.75010 1.657668 1.735721 4.199479
234 16.81870 9.775600 73.95540 15.56189 5.944983 69.00279
235 19.89710 27.42510 89.02440 23.14038 12.84343 91.45882
236 38.15560 49.95510 100.0000 38.32359 29.80627 112.3130
237 71.64600 63.23710 100.0000 54.75625 46.99821 109.7504
238 73.80840 57.96540 0.000000 37.38928 42.05130 6.843075
239 87.43450 77.72110 14.59890 54.80359 64.98551 13.02665
240 14.39770 17.92110 7.262700 3.494167 4.591581 2.036975
241 15.44640 17.68840 37.67100 6.603374 5.050868 19.58932
242 18.16570 21.71020 51.80700 10.57562 7.270593 35.03883
243 23.01150 25.21890 68.53820 16.38225 10.10307 56.76840
244 29.91670 36.32470 86.37360 26.13314 18.46752 82.99790
245 0.000000 43.09580 55.95500 17.19660 19.99469 39.19010
246 35.20090 46.83310 57.31600 22.87303 24.12763 38.78441
247 65.04510 46.12580 58.93550 33.47687 29.96160 40.63329
248 83.28090 57.69970 67.45000 48.07245 43.51556 50.46292
249 2.941200 0.000000 0.000000 0.514181 0.471495 0.693996
250 0.000000 0.000000 31.25000 3.270352 1.273871 15.52995
251 0.000000 0.000000 36.88520 4.385618 1.611663 21.30658
252 16.25420 7.098800 40.44160 6.186693 2.815576 23.48825
253 32.23030 12.49010 43.29230 10.40962 5.662692 25.43711
254 75.51100 47.91900 72.40630 42.46278 34.44328 58.90592
255 92.66910 59.18950 85.62060 59.58174 49.23215 78.74845
256 0.000000 0.000000 0.000000 0.417386 0.408781 0.692266
257 6.097600 0.000000 0.000000 0.723494 0.590350 0.701667
258 13.15790 0.000000 0.000000 1.369627 0.938992 0.724189
259 17.12330 0.000000 0.000000 2.046621 1.310024 0.740810
260 23.60330 8.214300 23.86380 4.779285 2.975498 8.676085
261 28.77890 17.83190 26.01110 7.256377 5.849209 9.625407
262 29.73460 20.64620 39.09080 10.11283 7.580378 20.79445
263 43.29960 28.71080 44.39120 16.46859 13.02930 24.69877
264 43.16830 0.000000 27.46230 11.16017 5.877437 10.11895
265 42.77630 0.000000 42.05280 13.55078 6.478509 23.87622
266 65.99070 0.000000 40.10740 23.87619 12.56134 20.27097
267 65.04510 0.000000 100.0000 40.19030 16.83467 114.9030
268 72.51400 25.99210 100.0000 44.46054 23.03231 112.1053
269 72.64810 27.20730 0.000000 26.35383 20.08601 2.467278
270 100.0000 26.26550 0.000000 43.19355 29.93420 3.362144
271 100.0000 26.82250 22.16300 43.80501 29.77782 8.199209
272 100.0000 44.44400 45.07500 50.41343 39.57549 25.83369
273 61.63890 39.30000 0.000000 23.95639 23.75270 3.529637
274 62.16890 55.04730 26.27670 31.43811 36.08107 12.76262
275 65.31770 65.23560 42.33710 38.88741 45.30154 26.64824
276 21.10020 25.20460 0.000000 6.002879 8.094027 1.709726
277 39.75610 27.00120 8.073000 11.45743 11.40299 2.879833
278 53.41950 48.76260 9.737300 24.37138 28.90571 5.959536
279 54.15520 68.11110 29.82190 35.31455 46.97292 17.37406
280 55.12850 70.83390 51.34760 39.46185 49.20634 34.91869
281 36.88520 0.000000 0.000000 7.312327 4.250728 0.860323
282 43.10350 0.000000 0.000000 9.865825 5.683680 0.909796
283 54.01820 13.90920 13.24580 15.90605 10.32392 3.464986
284 59.91440 13.66180 23.23200 18.91174 11.90983 7.664742
285 100.0000 0.000000 0.000000 41.49584 24.96583 2.494098
286 100.0000 0.000000 18.50790 41.60431 24.73663 6.140393
287 100.0000 25.50680 38.17060 45.09937 29.82385 18.17598
288 84.22950 9.436700 49.26740 34.82511 19.47666 29.81044
289 84.28700 89.80750 78.73190 67.80219 78.81349 68.24634
290 91.26980 91.26980 91.26980 76.57984 83.47705 88.28268
291 95.52850 95.52850 95.52850 82.74248 91.39631 97.30391
292 11.90480 11.90480 11.90480 2.304672 2.421906 2.878634
293 15.67180 19.39010 28.42610 5.357404 5.186670 11.17636
294 27.99750 30.80570 39.02040 11.74783 11.78781 20.30358
295 69.36280 36.52000 47.86330 30.29320 23.96197 28.02468
296 0.000000 9.493700 0.000000 1.084758 1.657765 0.878095
297 0.000000 13.15790 0.000000 1.571647 2.544832 0.978448
298 0.000000 13.46300 30.60430 3.862369 2.966576 13.84846
299 0.000000 27.89810 40.94210 8.387081 8.840805 22.58041
300 21.42860 0.000000 0.000000 2.847854 1.754697 0.739638
301 26.11940 0.000000 0.000000 3.948757 2.364819 0.775692
302 28.60580 0.000000 0.000000 4.686703 2.788181 0.802694
303 31.25000 0.000000 0.000000 5.447911 3.192990 0.796232
304 44.93180 0.000000 15.60050 11.26089 6.244394 4.143139
305 49.71340 15.47090 100.0000 34.03722 14.48567 115.4304
306 29.05980 16.91750 72.00480 17.02768 8.191481 61.69037
307 43.28300 20.45280 86.64660 26.73492 13.10490 85.26238
308 80.93940 51.98770 88.97660 50.62725 39.94773 87.71180
309 11.16400 7.944300 17.81230 2.275416 1.749379 5.502879
310 20.09140 29.78860 22.39150 7.928719 10.37003 8.146985
311 31.89060 42.61000 29.56200 15.90242 20.63850 12.82365
312 32.37240 46.69030 40.98610 19.18860 23.47301 23.39532
313 37.28450 48.33900 72.78900 27.99441 26.75927 60.17998
314 84.74530 75.28340 85.32590 62.19306 61.50737 80.33305
315 26.00690 12.08860 9.005200 4.618378 3.842898 2.159081
316 39.64320 18.59980 10.89560 9.726910 7.965711 2.946628
317 44.84170 28.65110 35.65950 15.79479 13.17878 16.48150
318 85.53780 59.59010 38.48090 46.14430 45.93163 22.54564
319 100.0000 63.30550 50.21460 57.64140 53.65321 32.00179
320 100.0000 80.68370 55.36700 68.40412 73.18150 39.61092
321 52.58700 100.0000 0.000000 56.45356 90.14682 17.09468
322 100.0000 100.0000 0.000000 77.41386 100.7253 17.34133
323 100.0000 100.0000 31.25460 78.28056 99.97195 25.67779
324 57.76230 12.31780 31.09480 18.77923 11.19397 12.19475
325 66.33080 18.74590 48.63890 25.72910 15.39403 28.99487
326 15.25090 0.000000 13.24210 2.195068 1.249827 3.515578
327 28.27320 0.000000 14.61930 4.972714 2.771963 3.690077
328 35.78120 10.65770 18.23090 7.746028 5.146540 5.100198
329 36.39390 12.39670 30.78820 9.563155 5.958521 12.50883
330 58.72120 46.42480 30.41390 26.50771 27.61825 14.29426
331 67.64120 55.28360 45.77080 36.24291 37.86685 28.10001
332 86.03550 66.82120 65.03840 53.14854 53.11248 49.12827
333 0.000000 0.000000 17.12330 1.391958 0.703290 5.805725
334 0.000000 0.000000 21.42860 1.859662 0.843143 8.273017
335 0.000000 0.000000 26.11940 2.483841 1.032417 11.52993
336 0.000000 28.81410 54.60830 11.48551 9.924899 38.20329
337 0.000000 30.59980 74.16160 17.14322 12.05133 64.82638
338 8.868000 40.85190 82.66530 23.65574 19.70244 76.43792
339 0.000000 44.42060 75.24480 22.13010 21.40444 63.48900
340 0.000000 60.42630 78.23630 31.52828 36.24611 70.44964
341 29.35630 61.95570 78.30350 34.61881 38.04306 70.43257
342 19.43020 60.86610 68.16170 29.82540 36.75461 53.70131
343 43.04160 69.47650 76.63450 40.82781 47.63692 66.48037
344 64.27870 76.24340 83.54380 52.20386 57.60400 76.63817
345 54.42630 37.52360 35.29410 21.94320 20.48833 16.74427
346 66.33190 47.19540 49.22370 32.79677 30.82200 30.74047
347 70.15200 71.82250 60.51220 47.16373 53.56418 45.07480
348 44.06230 55.72200 32.87660 26.02475 33.23608 17.18751
349 52.51810 58.13020 47.28720 31.77459 36.60577 30.72355
350 16.28500 37.82370 46.42800 13.85907 15.75879 28.32888
351 19.30540 44.57900 63.46180 20.58747 21.69621 48.38923
352 18.50540 57.85410 86.21290 33.54079 34.47752 83.62638
353 38.73360 65.64090 100.0000 45.91687 43.76444 112.4314
354 32.16190 31.10200 19.49820 10.62636 12.10613 6.583529
355 44.55390 31.47780 22.97790 15.13179 14.63730 8.195336
356 71.99810 31.89180 32.73640 28.18491 21.94878 14.14117
357 84.08810 40.46250 46.75870 39.28683 31.35546 27.18719
358 84.32470 71.99080 93.04910 62.02210 58.81499 91.63662
359 0.000000 47.45360 40.68070 15.96740 22.63244 23.54004
360 18.36660 53.18120 48.84590 21.67612 28.62105 32.05017
361 0.000000 54.29640 57.14910 22.25401 28.68877 40.47787
362 0.000000 73.55600 64.24460 35.79067 49.36725 50.98546
363 30.78140 79.54370 82.48050 46.04846 57.70330 76.49760
364 49.53540 84.37600 82.98820 52.90646 66.16481 77.48041
365 0.000000 16.24210 73.82590 14.78727 6.581140 67.84343
366 26.32400 18.10230 100.0000 27.65682 11.27883 117.3652
367 100.0000 100.0000 100.0000 90.86695 100.2853 107.4933
368 67.70360 0.000000 57.19280 27.85425 13.82875 40.12638
369 74.82790 0.000000 81.80090 37.59086 17.65428 74.53573
370 76.81760 22.05260 85.07040 39.84553 21.55888 78.82168
371 93.49270 27.68540 85.50140 50.18625 29.25111 79.02916
372 83.29380 37.84260 83.63490 46.15263 30.71077 75.56969
373 100.0000 74.61480 83.13120 70.29288 65.38820 74.60128
374 64.95330 19.76610 9.080100 21.78910 14.92982 2.887114
375 83.51710 55.64910 13.94580 41.27982 42.13626 8.739454
376 83.56560 66.79910 31.64420 47.85466 52.32761 18.72398
377 50.00000 0.000000 0.000000 13.29553 7.594625 1.006490
378 71.62340 0.000000 29.45590 24.78158 13.86951 11.13835
379 79.53890 20.15850 45.41290 31.91209 19.57169 25.76545
380 9.493700 9.493700 9.493700 1.709131 1.795861 2.217070
381 10.68380 10.68380 10.68380 1.994567 2.140637 2.650590
382 38.35440 10.01720 11.61840 8.615725 5.717616 2.860219
383 40.92020 53.30100 15.62280 22.49296 30.45376 8.153256
384 51.57580 76.82640 14.89550 39.15584 56.71852 12.96619
385 0.000000 68.56190 35.11560 27.46101 42.91144 21.52129
386 11.58100 84.94260 42.22460 40.48149 64.15252 30.21538
387 23.78850 92.99760 61.14090 49.91834 74.96665 48.59937
388 15.60440 10.41610 0.000000 2.393781 2.494641 0.918191
389 29.76760 15.81010 0.000000 6.046563 5.465033 1.155628
390 49.13040 25.07580 56.84300 20.83159 13.54704 39.58770
391 68.04090 33.96360 56.68900 30.58547 22.70993 37.52010
392 0.000000 0.000000 2.941200 0.474017 0.425844 1.001432
393 0.000000 0.000000 6.097600 0.574466 0.459016 1.506658
394 25.52480 36.02980 11.96010 10.45065 14.69241 4.626150
395 41.26180 39.66750 17.45960 16.32659 19.25689 6.681287
396 48.28710 39.53360 48.89790 22.44966 21.05708 30.36076
397 52.19850 43.06180 65.25780 28.58758 24.96647 48.32183
398 55.78650 56.33250 85.98200 40.52478 36.72102 81.66623
399 69.56630 91.91000 91.59310 65.91388 78.67466 91.20166
400 78.97580 92.96920 100.0000 74.12704 82.84695 108.6382
401 10.66480 20.99310 20.29780 4.488804 5.601228 6.822424
402 13.77150 40.41280 21.32960 11.07885 16.85964 8.637811
403 16.73770 44.39210 33.11560 14.15829 20.02555 15.68530
404 26.77230 48.32260 51.35430 20.64964 24.47151 33.27394
405 50.89010 58.31610 68.45960 35.35448 37.38836 53.39102
406 68.23410 61.15990 76.03300 44.85664 43.67135 64.69747
407 45.97030 44.50870 34.38600 21.15497 23.69373 16.71924
408 56.15480 100.0000 35.43610 58.07241 89.82308 27.71232
409 73.99540 100.0000 53.17100 66.96994 92.94012 40.72266
410 69.84310 83.30790 0.000000 48.82772 67.76924 12.35362
411 80.65360 88.60410 35.23070 59.26095 76.22022 25.52601
412 48.93610 57.23360 0.000000 26.87201 35.61689 6.170925
413 67.04120 68.97780 18.31580 40.13771 50.97200 12.26910
414 82.12820 80.48880 46.05290 55.78912 66.95957 31.61475
415 26.43830 0.000000 48.78950 9.803942 3.955540 33.04375
416 40.54770 13.54860 58.99460 16.64574 8.377775 42.62463
417 62.58610 12.68580 88.19940 34.49108 15.95101 88.97364
END_DATA
CAL    

DESCRIPTOR "Argyll Device Calibration State"
ORIGINATOR "Argyll dispread"
CREATED "Tue Feb 09 09:39:42 2021"
DEVICE_CLASS "DISPLAY"
COLOR_REP "RGB"

BEGIN_ARGYLL_DISPCAL_ARGS
-v2 -ql -m -w0.3127,0.329 -gs -f1.0 -k0 -A4.0 -d2 -c1 -yn -P0.499239543726,0.498947368421,1.62416107383
END_ARGYLL_DISPCAL_ARGS


NUMBER_OF_FIELDS 4
BEGIN_DATA_FORMAT
RGB_I RGB_R RGB_G RGB_B
END_DATA_FORMAT

NUMBER_OF_SETS 256
BEGIN_DATA
0.00000000 0.00000000 0.00000000 0.00000000
0.00392157 0.00341214 0.00379553 0.00373079
0.00784314 0.00680368 0.00755901 0.00742927
0.01176470 0.01017480 0.01129090 0.01109580
0.01568630 0.01352570 0.01499150 0.01473090
0.01960780 0.01685650 0.01866120 0.01833500
0.02352940 0.02016750 0.02230050 0.02190830
0.02745100 0.02345870 0.02590970 0.02545130
0.03137250 0.02673050 0.02948910 0.02896450
0.03529410 0.02998290 0.03303930 0.03244800
0.03921570 0.03321620 0.03656080 0.03590120
0.04313730 0.03643220 0.04005960 0.03932350
0.04705880 0.03963620 0.04353710 0.04272020
0.05098040 0.04284250 0.04699360 0.04609220
0.05490200 0.04605630 0.05042480 0.04943590
0.05882350 0.04927960 0.05382480 0.05274950
0.06274510 0.05250930 0.05719910 0.05603920
0.06666670 0.05574450 0.06055870 0.05931810
0.07058820 0.05899050 0.06391190 0.06259880
0.07450980 0.06225210 0.06726080 0.06588460
0.07843140 0.06552390 0.07060190 0.06917350
0.08235290 0.06880260 0.07393140 0.07246430
0.08627450 0.07208910 0.07724420 0.07575370
0.09019610 0.07538180 0.08054840 0.07904280
0.09411760 0.07867550 0.08385020 0.08233600
0.09803920 0.08196440 0.08715790 0.08564030
0.10196100 0.08525220 0.09047280 0.08896140
0.10588200 0.08853860 0.09379450 0.09230230
0.10980400 0.09182060 0.09712550 0.09566770
0.11372500 0.09509680 0.10047000 0.09905960
0.11764700 0.09836710 0.10382300 0.10247000
0.12156900 0.10163200 0.10718500 0.10589300
0.12549000 0.10489200 0.11055300 0.10932200
0.12941200 0.10814500 0.11392400 0.11274900
0.13333300 0.11138100 0.11729600 0.11616600
0.13725500 0.11460300 0.12066100 0.11957000
0.14117600 0.11781100 0.12401300 0.12295200
0.14509800 0.12100800 0.12735700 0.12631600
0.14902000 0.12420900 0.13070400 0.12967500
0.15294100 0.12742500 0.13405300 0.13302800
0.15686300 0.13065500 0.13740900 0.13638000
0.16078400 0.13390100 0.14076900 0.13973300
0.16470600 0.13716300 0.14413300 0.14308700
0.16862700 0.14044800 0.14750100 0.14644500
0.17254900 0.14376400 0.15087000 0.14980300
0.17647100 0.14710900 0.15423500 0.15316100
0.18039200 0.15047400 0.15758900 0.15650900
0.18431400 0.15384500 0.16093300 0.15984600
0.18823500 0.15721800 0.16427200 0.16317800
0.19215700 0.16058600 0.16760200 0.16650400
0.19607800 0.16394800 0.17091800 0.16981800
0.20000000 0.16730100 0.17421700 0.17311900
0.20392200 0.17064300 0.17750200 0.17640900
0.20784300 0.17397800 0.18078000 0.17969900
0.21176500 0.17730900 0.18405800 0.18299000
0.21568600 0.18063300 0.18733900 0.18628400
0.21960800 0.18395200 0.19062900 0.18958400
0.22352900 0.18726300 0.19393100 0.19289400
0.22745100 0.19057500 0.19724600 0.19621500
0.23137300 0.19388500 0.20057200 0.19954500
0.23529400 0.19719200 0.20390900 0.20288200
0.23921600 0.20050000 0.20725900 0.20622800
0.24313700 0.20381000 0.21062200 0.20958500
0.24705900 0.20712500 0.21399400 0.21294600
0.25098000 0.21044600 0.21736900 0.21630800
0.25490200 0.21377700 0.22074800 0.21966800
0.25882400 0.21712000 0.22412500 0.22302000
0.26274500 0.22047800 0.22749200 0.22635900
0.26666700 0.22385400 0.23084900 0.22968100
0.27058800 0.22724700 0.23420300 0.23299200
0.27451000 0.23065100 0.23755500 0.23628900
0.27843100 0.23406200 0.24089500 0.23956100
0.28235300 0.23747200 0.24422300 0.24280700
0.28627500 0.24088200 0.24754000 0.24602800
0.29019600 0.24428300 0.25084300 0.24922100
0.29411800 0.24767400 0.25413100 0.25238500
0.29803900 0.25105400 0.25740500 0.25552200
0.30196100 0.25442800 0.26066600 0.25863500
0.30588200 0.25779400 0.26391700 0.26172600
0.30980400 0.26115100 0.26716300 0.26480300
0.31372500 0.26450700 0.27040600 0.26787300
0.31764700 0.26786100 0.27364800 0.27094000
0.32156900 0.27121500 0.27688700 0.27400800
0.32549000 0.27457700 0.28013000 0.27708400
0.32941200 0.27794500 0.28337800 0.28017400
0.33333300 0.28131300 0.28662900 0.28328100
0.33725500 0.28468300 0.28988100 0.28640400
0.34117600 0.28806200 0.29313200 0.28954400
0.34509800 0.29144900 0.29639100 0.29270400
0.34902000 0.29484400 0.29965600 0.29589100
0.35294100 0.29824700 0.30292200 0.29910000
0.35686300 0.30164300 0.30618900 0.30232500
0.36078400 0.30502500 0.30945300 0.30556300
0.36470600 0.30838900 0.31271000 0.30880400
0.36862700 0.31173600 0.31596100 0.31204600
0.37254900 0.31506200 0.31920100 0.31528600
0.37647100 0.31836500 0.32243100 0.31851700
0.38039200 0.32164600 0.32565400 0.32173700
0.38431400 0.32489400 0.32887100 0.32494900
0.38823500 0.32809400 0.33208000 0.32815100
0.39215700 0.33124800 0.33526600 0.33134200
0.39607800 0.33436000 0.33842600 0.33450300
0.40000000 0.33743600 0.34156500 0.33763500
0.40392200 0.34048100 0.34468300 0.34073800
0.40784300 0.34348800 0.34778000 0.34381600
0.41176500 0.34645400 0.35085200 0.34687000
0.41568600 0.34938400 0.35389600 0.34990200
0.41960800 0.35228200 0.35690700 0.35290900
0.42352900 0.35514700 0.35988200 0.35588300
0.42745100 0.35798100 0.36282000 0.35882300
0.43137300 0.36078300 0.36572200 0.36173000
0.43529400 0.36355200 0.36859100 0.36460500
0.43921600 0.36630000 0.37143100 0.36744700
0.44313700 0.36903400 0.37424100 0.37026000
0.44705900 0.37175300 0.37702400 0.37304300
0.45098000 0.37445600 0.37978900 0.37580000
0.45490200 0.37714200 0.38253900 0.37853900
0.45882400 0.37981400 0.38528000 0.38126100
0.46274500 0.38247200 0.38801800 0.38396800
0.46666700 0.38511500 0.39075800 0.38666600
0.47058800 0.38774600 0.39350500 0.38936100
0.47451000 0.39037100 0.39625900 0.39205300
0.47843100 0.39299500 0.39902300 0.39474400
0.48235300 0.39561900 0.40180900 0.39743500
0.48627500 0.39824500 0.40462100 0.40014100
0.49019600 0.40087800 0.40745900 0.40286500
0.49411800 0.40352200 0.41032500 0.40560900
0.49803900 0.40618000 0.41322500 0.40837400
0.50196100 0.40885200 0.41616200 0.41116400
0.50588200 0.41154500 0.41914200 0.41398800
0.50980400 0.41426500 0.42216400 0.41685100
0.51372500 0.41701800 0.42522600 0.41975300
0.51764700 0.41980600 0.42833300 0.42269000
0.52156900 0.42263000 0.43148100 0.42566800
0.52549000 0.42548600 0.43467000 0.42868500
0.52941200 0.42838000 0.43789900 0.43174200
0.53333300 0.43131600 0.44117100 0.43484000
0.53725500 0.43429500 0.44448100 0.43798000
0.54117600 0.43731700 0.44782300 0.44116400
0.54509800 0.44037800 0.45119400 0.44438600
0.54902000 0.44347800 0.45459300 0.44764200
0.55294100 0.44661700 0.45802100 0.45092900
0.55686300 0.44978400 0.46147900 0.45425400
0.56078400 0.45297300 0.46496200 0.45762000
0.56470600 0.45617900 0.46846700 0.46101900
0.56862700 0.45939700 0.47198900 0.46444800
0.57254900 0.46262400 0.47552700 0.46790200
0.57647100 0.46585900 0.47909000 0.47137200
0.58039200 0.46910200 0.48268400 0.47486500
0.58431400 0.47235400 0.48631200 0.47838300
0.58823500 0.47561500 0.48997500 0.48192800
0.59215700 0.47890200 0.49368600 0.48550500
0.59607800 0.48221800 0.49745400 0.48912200
0.60000000 0.48556600 0.50125900 0.49279200
0.60392200 0.48894700 0.50506700 0.49651600
0.60784300 0.49236400 0.50887600 0.50026200
0.61176500 0.49581500 0.51268600 0.50401500
0.61568600 0.49930200 0.51649900 0.50777400
0.61960800 0.50282500 0.52030900 0.51154000
0.62352900 0.50638400 0.52411100 0.51531100
0.62745100 0.50998100 0.52789300 0.51908200
0.63137300 0.51362300 0.53166000 0.52285200
0.63529400 0.51731600 0.53542000 0.52661300
0.63921600 0.52106000 0.53918700 0.53037700
0.64313700 0.52484900 0.54297200 0.53415500
0.64705900 0.52868600 0.54678200 0.53795700
0.65098000 0.53256800 0.55061800 0.54178900
0.65490200 0.53649200 0.55447800 0.54565200
0.65882400 0.54044900 0.55835300 0.54954600
0.66274500 0.54442300 0.56224400 0.55346900
0.66666700 0.54840200 0.56615600 0.55740500
0.67058800 0.55238800 0.57008900 0.56135500
0.67451000 0.55638000 0.57404000 0.56531600
0.67843100 0.56037400 0.57800400 0.56928600
0.68235300 0.56437700 0.58198700 0.57326500
0.68627500 0.56839700 0.58600200 0.57726200
0.69019600 0.57242600 0.59004300 0.58129100
0.69411800 0.57645900 0.59409800 0.58535800
0.69803900 0.58049600 0.59816400 0.58944500
0.70196100 0.58454600 0.60224600 0.59354300
0.70588200 0.58859600 0.60633800 0.59765500
0.70980400 0.59264300 0.61044800 0.60177600
0.71372500 0.59668500 0.61458500 0.60590600
0.71764700 0.60070200 0.61873800 0.61005800
0.72156900 0.60469400 0.62289800 0.61423100
0.72549000 0.60869000 0.62707900 0.61841400
0.72941200 0.61270400 0.63129100 0.62261600
0.73333300 0.61674200 0.63552900 0.62685700
0.73725500 0.62079800 0.63979600 0.63113100
0.74117600 0.62486500 0.64409000 0.63543700
0.74509800 0.62895400 0.64841400 0.63977900
0.74902000 0.63306900 0.65277500 0.64415900
0.75294100 0.63722200 0.65717100 0.64859000
0.75686300 0.64141600 0.66160100 0.65307500
0.76078400 0.64565300 0.66606600 0.65761400
0.76470600 0.64992000 0.67054600 0.66220700
0.76862700 0.65421100 0.67503400 0.66683300
0.77254900 0.65852800 0.67953200 0.67147600
0.77647100 0.66288100 0.68404100 0.67613700
0.78039200 0.66726500 0.68856700 0.68081700
0.78431400 0.67167200 0.69312300 0.68552800
0.78823500 0.67609500 0.69772400 0.69028200
0.79215700 0.68053400 0.70236300 0.69509300
0.79607800 0.68498900 0.70703500 0.69994600
0.80000000 0.68945700 0.71173400 0.70482500
0.80392200 0.69395500 0.71646300 0.70972400
0.80784300 0.69848700 0.72122100 0.71464400
0.81176500 0.70304800 0.72603000 0.71959600
0.81568600 0.70764200 0.73090100 0.72459600
0.81960800 0.71227900 0.73582400 0.72964800
0.82352900 0.71696200 0.74078700 0.73473700
0.82745100 0.72168800 0.74578200 0.73984300
0.83137300 0.72645000 0.75080900 0.74496200
0.83529400 0.73123700 0.75586200 0.75009200
0.83921600 0.73605100 0.76093900 0.75523300
0.84313700 0.74090800 0.76605800 0.76039600
0.84705900 0.74582200 0.77122100 0.76559600
0.85098000 0.75076900 0.77641100 0.77080700
0.85490200 0.75573500 0.78161400 0.77600600
0.85882400 0.76070500 0.78681900 0.78117300
0.86274500 0.76568100 0.79202900 0.78631100
0.86666700 0.77066500 0.79725500 0.79143200
0.87058800 0.77566800 0.80253700 0.79655200
0.87451000 0.78071700 0.80789000 0.80172000
0.87843100 0.78583300 0.81330200 0.80694300
0.88235300 0.79100600 0.81876300 0.81221600
0.88627500 0.79621800 0.82427500 0.81754500
0.89019600 0.80144500 0.82982600 0.82291500
0.89411800 0.80668500 0.83540100 0.82831600
0.89803900 0.81192800 0.84098000 0.83373600
0.90196100 0.81718700 0.84655700 0.83916100
0.90588200 0.82246000 0.85215600 0.84459200
0.90980400 0.82774200 0.85777800 0.85004200
0.91372500 0.83303000 0.86341100 0.85551900
0.91764700 0.83830700 0.86904000 0.86101400
0.92156900 0.84356700 0.87466700 0.86651600
0.92549000 0.84882700 0.88032600 0.87204300
0.92941200 0.85412800 0.88604300 0.87763100
0.93333300 0.85949800 0.89179800 0.88331100
0.93725500 0.86496400 0.89760000 0.88906700
0.94117600 0.87052500 0.90344000 0.89491800
0.94509800 0.87618200 0.90930400 0.90084200
0.94902000 0.88193600 0.91520300 0.90682800
0.95294100 0.88779100 0.92115900 0.91288700
0.95686300 0.89377100 0.92715300 0.91903400
0.96078400 0.89985500 0.93317800 0.92524300
0.96470600 0.90604700 0.93924600 0.93152200
0.96862700 0.91232300 0.94534900 0.93787500
0.97254900 0.91866000 0.95148600 0.94429400
0.97647100 0.92506100 0.95765800 0.95077400
0.98039200 0.93153200 0.96386800 0.95731700
0.98431400 0.93808100 0.97011400 0.96392500
0.98823500 0.94471600 0.97639800 0.97059400
0.99215700 0.95143800 0.98272000 0.97732700
0.99607800 0.95825000 0.98908000 0.98412400
1.00000000 0.96515300 0.99547800 0.99098600
END_DATA
