CTI3   

DESCRIPTOR "Argyll Calibration Target chart information 3"
ORIGINATOR "Argyll dispread"
CREATED "Tue May 26 13:42:26 2020"
DEVICE_CLASS "DISPLAY"
SINGLE_DIM_STEPS "21"
COMP_GREY_STEPS "61"
DARK_REGION_EMPHASIS "1.6"
COLOR_REP "RGB_XYZ"
TARGET_INSTRUMENT "X-Rite i1 DisplayPro, ColorMunki Display"
DISPLAY_TYPE_REFRESH "YES"
INSTRUMENT_TYPE_SPECTRAL "NO"
LUMINANCE_XYZ_CDM2 "300.683605 314.899068 347.602856"
NORMALIZED_TO_Y_100 "YES"
VIDEO_LUT_CALIBRATION_POSSIBLE "YES"

BEGIN_ARGYLL_COLPROF_ARGS
-v -qh -aX -bn -C "No copyright. Created with DisplayCAL 3.8.9.3 and ArgyllCMS 2.1.2" -M "DELL U2913WM" -A "Dell, Inc."
END_ARGYLL_COLPROF_ARGS

OBSERVER "1931_2"
USE_BLACK_POINT_COMPENSATION "NO"
BLACK_POINT_CORRECTION "0.0"
HIRES_B2A "YES"
HIRES_B2A_SIZE "-1"
SMOOTH_B2A "YES"
PATCH_SEQUENCE "OPTIMIZE_DISPLAY_RESPONSE_DELAY"

NUMBER_OF_FIELDS 7
BEGIN_DATA_FORMAT
SAMPLE_ID RGB_R RGB_G RGB_B XYZ_X XYZ_Y XYZ_Z
END_DATA_FORMAT

NUMBER_OF_SETS 588
BEGIN_DATA
1 100.00000 100.00000 100.00000 95.485710 100.00000 110.38550
2 1.9608000 1.9608000 1.9608000 0.1946600 0.1985730 0.2600290
3 3.9216000 3.9216000 3.9216000 0.3216010 0.3281590 0.4143380
4 5.8824000 5.8824000 5.8824000 0.4923750 0.5240330 0.6114720
5 9.8039000 9.8039000 9.8039000 0.9785720 1.0274260 1.2030610
6 13.726000 13.726000 13.726000 1.7045500 1.7703860 2.0145430
7 17.647000 17.647000 17.647000 2.6220130 2.7337640 3.0867480
8 21.569000 21.569000 21.569000 3.8338470 4.0685020 4.4351110
9 25.490000 25.490000 25.490000 5.1884370 5.4526150 6.0970050
10 29.412000 29.412000 29.412000 6.6784940 7.0278620 7.8216770
11 33.333000 33.333000 33.333000 8.5701360 9.0047380 9.9449980
12 37.255000 37.255000 37.255000 10.740620 11.276870 12.598480
13 41.176000 41.176000 41.176000 13.364220 14.050600 15.378640
14 45.098000 45.098000 45.098000 16.265170 17.160190 18.845280
15 49.020000 49.020000 49.020000 19.436140 20.442540 22.311070
16 52.941000 52.941000 52.941000 23.066420 24.282870 26.931370
17 56.863000 56.863000 56.863000 27.233010 28.622470 31.708250
18 60.784000 60.784000 60.784000 31.596970 33.191020 36.330670
19 64.706000 64.706000 64.706000 35.905040 37.586270 41.666660
20 68.627000 68.627000 68.627000 41.039250 43.008610 47.382030
21 72.549000 72.549000 72.549000 46.220910 48.346520 53.375360
22 76.471000 76.471000 76.471000 52.187750 54.928230 59.845740
23 80.392000 80.392000 80.392000 58.482890 61.635670 67.620660
24 84.314000 84.314000 84.314000 64.834510 68.236050 75.143990
25 88.235000 88.235000 88.235000 72.083280 75.862790 83.139030
26 92.157000 92.157000 92.157000 79.210110 83.373300 91.413880
27 96.078000 96.078000 96.078000 86.646900 90.614410 100.30210
28 23.208200 10.143800 0.0000000 2.1384890 1.6481880 0.2346310
29 36.792500 31.617200 0.0000000 7.2039560 7.8600950 0.7600400
30 61.720300 100.00000 20.112000 51.707870 79.094670 11.022180
31 61.157700 100.00000 58.974000 56.784460 81.443640 38.795820
32 0.0000000 78.302900 27.716200 23.495650 42.686300 10.515940
33 0.0000000 83.178000 69.244100 33.757660 51.707780 49.334390
34 0.0000000 85.566100 100.00000 46.468670 59.868240 107.46100
35 0.0000000 100.00000 100.00000 57.424700 80.895090 109.59980
36 0.0000000 19.825500 57.012000 6.8462110 5.0143440 29.306190
37 0.0000000 21.516300 76.276000 12.043420 7.7307710 55.401150
38 70.321800 44.960500 100.00000 43.252760 29.948430 104.12420
39 13.157900 0.0000000 0.0000000 0.6749300 0.3747460 0.1473000
40 16.304300 0.0000000 0.0000000 0.9607450 0.5180110 0.1515680
41 19.662900 0.0000000 0.0000000 1.2520090 0.6639710 0.1554870
42 23.255800 0.0000000 0.0000000 1.7184670 0.8977670 0.1624210
43 27.108400 0.0000000 0.0000000 2.3112530 1.1949470 0.1711840
44 31.250000 0.0000000 0.0000000 3.0016690 1.5406660 0.1817160
45 35.714300 0.0000000 0.0000000 3.8697330 1.9772260 0.1948400
46 40.540500 0.0000000 0.0000000 4.9740840 2.5301670 0.2109930
47 45.774700 0.0000000 0.0000000 6.4915900 3.2912160 0.2339500
48 51.470600 0.0000000 0.0000000 8.3952250 4.2460020 0.2622300
49 54.451600 0.0000000 0.0000000 9.4860130 4.7919510 0.2786930
50 57.692300 0.0000000 0.0000000 10.866130 5.4833570 0.2990210
51 64.516100 0.0000000 0.0000000 13.955910 7.0333210 0.3452320
52 72.033900 0.0000000 0.0000000 17.863200 8.9891220 0.4036640
53 80.357100 0.0000000 0.0000000 22.610990 11.367640 0.4749070
54 100.00000 0.0000000 100.00000 56.998500 27.475060 103.13830
55 100.00000 30.647900 100.00000 60.109680 33.151660 103.69050
56 100.00000 51.479700 100.00000 65.994740 44.238620 104.73280
57 22.273300 0.0000000 35.406600 3.4996190 1.6947070 10.375280
58 30.123700 0.0000000 55.993500 8.1076010 3.8379900 28.582260
59 100.00000 0.0000000 67.028400 45.618820 22.504840 42.803310
60 100.00000 0.0000000 82.140500 49.986720 24.460020 65.966790
61 0.0000000 19.662900 0.0000000 1.2842880 2.3516020 0.3612960
62 0.0000000 23.255800 0.0000000 1.7439480 3.2185860 0.4457880
63 0.0000000 27.108400 0.0000000 2.3519060 4.3506390 0.5569880
64 0.0000000 31.250000 0.0000000 3.0391240 5.6563740 0.6850660
65 0.0000000 35.714300 0.0000000 3.9104820 7.3085880 0.8467980
66 0.0000000 40.540500 0.0000000 5.0952000 9.5611770 1.0684820
67 0.0000000 45.774700 0.0000000 6.7203030 12.636540 1.3693860
68 0.0000000 51.470600 0.0000000 8.5470290 16.095620 1.7098830
69 0.0000000 57.692300 0.0000000 11.115980 20.953020 2.1862030
70 0.0000000 64.516100 0.0000000 14.137070 26.658030 2.7462140
71 0.0000000 72.033900 0.0000000 18.018160 33.990440 3.4653170
72 0.0000000 80.357100 0.0000000 23.459860 44.312290 4.4805530
73 100.00000 100.00000 0.0000000 75.959270 91.137550 7.8613150
74 100.00000 100.00000 28.160100 77.222820 91.727260 14.586640
75 100.00000 100.00000 51.008300 80.288610 93.168400 30.621410
76 0.0000000 0.0000000 4.8077000 0.1416050 0.1043420 0.4448990
77 0.0000000 0.0000000 7.4257000 0.1965590 0.1289380 0.7340960
78 0.0000000 0.0000000 10.204100 0.2830370 0.1678700 1.1953340
79 0.0000000 0.0000000 13.157900 0.3883760 0.2152910 1.7539080
80 0.0000000 0.0000000 16.304300 0.5433090 0.2850850 2.5718430
81 0.0000000 0.0000000 19.662900 0.7009410 0.3568230 3.4091480
82 0.0000000 0.0000000 23.255800 0.9312860 0.4604600 4.6320060
83 0.0000000 0.0000000 27.108400 1.2004490 0.5821240 6.0544910
84 0.0000000 0.0000000 31.250000 1.5758530 0.7521810 8.0484920
85 0.0000000 0.0000000 35.714300 2.0107470 0.9489740 10.352420
86 0.0000000 0.0000000 40.540500 2.6102580 1.2194990 13.528090
87 0.0000000 0.0000000 45.774700 3.4167060 1.5841020 17.793460
88 0.0000000 0.0000000 51.470600 4.3200270 1.9935590 22.588150
89 0.0000000 0.0000000 57.692300 5.7111700 2.6262330 29.967010
90 0.0000000 0.0000000 64.516100 7.2793620 3.3344620 38.279820
91 0.0000000 0.0000000 72.033900 9.2370710 4.2043780 48.616040
92 0.0000000 0.0000000 80.357100 11.841910 5.3766980 62.439530
93 0.0000000 0.0000000 89.622600 15.248340 6.8804890 80.465550
94 33.354100 0.0000000 29.919900 4.6984160 2.3235450 7.5324340
95 34.164200 26.637600 66.890900 13.740240 9.6898460 42.349740
96 35.540500 36.893800 100.00000 27.598390 18.714900 103.46740
97 41.630500 50.705400 100.00000 33.283810 27.407730 104.25320
98 3.1447000 3.1447000 3.1447000 0.2590250 0.2637200 0.3471000
99 3.9683000 3.9683000 3.9683000 0.3210220 0.3269720 0.4150010
100 4.8077000 4.8077000 4.8077000 0.3818180 0.3991720 0.4749280
101 5.6634000 5.6634000 5.6634000 0.4442450 0.4621590 0.5717770
102 6.5359000 6.5359000 6.5359000 0.5803300 0.6077230 0.6976210
103 7.4257000 7.4257000 7.4257000 0.6672780 0.6991080 0.7933330
104 8.3333000 8.3333000 8.3333000 0.7667710 0.8076220 0.9021240
105 9.2593000 9.2593000 9.2593000 0.9353930 1.0036580 1.1245140
106 10.204100 10.204100 10.204100 1.0521640 1.1019860 1.2952980
107 11.168400 11.168400 11.168400 1.2164740 1.2718170 1.4826350
108 12.152800 12.152800 12.152800 1.3982920 1.4538580 1.6789040
109 13.157900 13.157900 13.157900 1.6363750 1.7322900 1.9149760
110 14.184400 14.184400 14.184400 1.7629330 1.8516220 2.1373400
111 15.233000 15.233000 15.233000 2.0843460 2.1919980 2.3995200
112 16.304300 16.304300 16.304300 2.3533220 2.4599460 2.8076560
113 17.399300 17.399300 17.399300 2.5340030 2.6825870 2.9555260
114 18.518500 18.518500 18.518500 2.8343560 2.9838750 3.4039620
115 19.662900 19.662900 19.662900 3.1271970 3.2880330 3.7337690
116 20.833300 20.833300 20.833300 3.5341700 3.7362760 4.2462740
117 22.030700 22.030700 22.030700 3.9837030 4.1993740 4.6205160
118 23.255800 23.255800 23.255800 4.3243000 4.5230570 5.0754460
119 24.509800 24.509800 24.509800 4.7564170 4.9703910 5.5856300
120 25.793600 25.793600 25.793600 5.3049270 5.5839540 6.1190890
121 27.108400 27.108400 27.108400 5.8210020 6.1110470 6.6776620
122 28.455300 28.455300 28.455300 6.3888450 6.6650290 7.4272540
123 29.835400 29.835400 29.835400 6.8458780 7.1885340 8.0220350
124 31.250000 31.250000 31.250000 7.6236730 7.9697250 8.8660690
125 32.700400 32.700400 32.700400 8.1467590 8.5549980 9.5233190
126 34.188000 34.188000 34.188000 8.9704770 9.4112380 10.430340
127 35.714300 35.714300 35.714300 9.8493830 10.304460 11.399550
128 37.280700 37.280700 37.280700 10.721230 11.240260 12.618970
129 38.888900 38.888900 38.888900 11.809520 12.418480 13.745970
130 40.540500 40.540500 40.540500 12.817930 13.473650 14.871990
131 42.237400 42.237400 42.237400 14.168700 14.850390 16.341570
132 43.981500 43.981500 43.981500 15.411620 16.233150 17.594580
133 45.774700 45.774700 45.774700 16.855510 17.747380 19.532790
134 47.619100 47.619100 47.619100 18.103800 19.038450 20.940000
135 49.516900 49.516900 49.516900 19.738340 20.706770 22.722290
136 51.470600 51.470600 51.470600 21.551570 22.619400 24.786790
137 53.482600 53.482600 53.482600 23.437300 24.622220 27.444070
138 55.555600 55.555600 55.555600 25.878560 27.181690 30.290080
139 57.692300 57.692300 57.692300 28.083910 29.440490 32.760200
140 59.895800 59.895800 59.895800 30.582720 32.131780 35.358280
141 62.169300 62.169300 62.169300 33.060650 34.581900 38.482430
142 64.516100 64.516100 64.516100 35.837470 37.476910 41.734670
143 66.939900 66.939900 66.939900 39.095750 40.892840 45.144900
144 69.444400 69.444400 69.444400 42.022070 43.950820 48.647200
145 72.033900 72.033900 72.033900 45.598720 47.647430 52.868210
146 74.712600 74.712600 74.712600 49.974220 52.351540 57.625120
147 77.485400 77.485400 77.485400 54.043520 56.786600 62.225900
148 80.357100 80.357100 80.357100 58.383770 61.467970 67.731050
149 83.333300 83.333300 83.333300 62.508940 65.763270 72.702690
150 86.419700 86.419700 86.419700 68.048350 71.640130 78.772470
151 89.622600 89.622600 89.622600 74.806430 78.665000 86.964380
152 92.948700 92.948700 92.948700 80.663270 84.688130 93.375060
153 96.405200 96.405200 96.405200 87.396830 91.272310 101.49740
154 43.418700 46.659400 0.0000000 12.899250 16.029740 1.5014660
155 42.115900 100.00000 0.0000000 43.629860 74.821890 7.3851050
156 62.168800 100.00000 75.618800 61.555060 83.341330 61.640880
157 0.0000000 55.108800 54.076100 15.173940 21.605880 27.821240
158 32.635900 58.400500 75.279800 24.940340 28.171840 55.663170
159 80.756800 60.412800 73.506200 45.220990 39.574970 53.701040
160 23.557000 72.165500 15.166900 20.220060 35.199480 5.6190850
161 33.927100 100.00000 25.247100 42.632550 74.282120 12.751540
162 100.00000 100.00000 69.330000 84.434560 94.869870 53.253770
163 100.00000 100.00000 86.187000 89.662350 97.208450 81.087420
164 0.0000000 12.166200 36.068300 2.5830020 1.9726850 10.673620
165 27.866900 15.761800 37.204000 5.4301470 3.7874490 11.942460
166 47.189400 64.015100 0.0000000 20.742880 29.405770 2.7805180
167 64.358300 64.568100 0.0000000 28.050770 33.578400 2.9522560
168 53.301200 0.0000000 76.442000 19.446180 9.2556930 55.758670
169 73.299900 0.0000000 76.229000 28.893390 13.996490 55.269670
170 85.432800 100.00000 78.318400 75.686530 90.335640 66.953270
171 90.280700 100.00000 93.306000 84.293070 94.328140 95.297310
172 0.0000000 100.00000 49.402400 41.846170 73.744870 27.871830
173 0.0000000 100.00000 68.503300 46.174210 75.683690 50.755050
174 0.0000000 66.449200 54.589300 20.214630 31.017220 29.189610
175 0.0000000 67.698800 78.442600 27.134680 35.283120 61.708160
176 0.0000000 0.0000000 100.00000 19.374890 8.6277800 102.47550
177 0.0000000 21.801800 100.00000 21.033810 11.746180 102.78620
178 0.0000000 49.317400 100.00000 27.446280 23.873490 103.93240
179 31.353200 62.948000 100.00000 36.106950 36.038190 105.17200
180 56.730000 79.256300 100.00000 52.959390 57.226690 106.98050
181 82.492700 88.963000 100.00000 73.226540 76.763090 108.46270
182 0.0000000 37.309800 24.173500 5.2735130 8.5493640 5.8856620
183 0.0000000 61.410900 27.074700 13.936290 24.668550 8.4090780
184 46.155400 83.696300 82.702800 44.915150 57.299580 71.622390
185 48.036200 100.00000 100.00000 64.739880 84.307620 109.83520
186 59.529000 60.875900 84.709400 37.919360 36.004950 73.288070
187 65.164000 75.507800 90.452500 50.584300 53.077650 86.587620
188 0.0000000 0.0000000 0.0000000 0.0841512 0.0785479 0.1386680
189 41.199400 30.167100 11.263100 8.3156480 8.0521610 2.0010140
190 67.943800 36.208600 21.742200 20.709200 15.909790 5.1736380
191 100.00000 100.00000 100.00000 95.156120 99.514430 110.38180
192 41.000400 0.0000000 22.308700 5.9920930 2.9987070 4.5503810
193 54.045100 0.0000000 39.596500 11.792570 5.8227600 13.476890
194 50.916100 14.897900 32.388900 10.780630 6.4387260 9.1689680
195 57.974800 28.883100 64.866700 20.936020 13.798370 39.512770
196 100.00000 28.738300 83.496700 53.174830 29.580520 69.594370
197 24.782400 0.0000000 13.078500 2.2597230 1.1528690 1.8279610
198 28.821200 19.296900 21.253200 4.5675320 3.9931560 4.4201050
199 41.467000 27.297800 23.167900 8.6665660 7.6351490 5.2871450
200 65.416200 27.824600 24.006100 17.944730 12.381010 5.7814630
201 65.626300 55.306900 29.838100 26.190450 27.224860 9.6506110
202 70.172800 68.089800 35.355300 35.245870 39.944000 13.730820
203 69.707400 72.131400 62.891400 41.972890 45.913710 40.047060
204 79.470300 76.234600 100.00000 62.818290 59.323950 106.81420
205 0.0000000 0.0000000 2.3364000 0.1101310 0.0901588 0.2791940
206 14.146600 0.0000000 15.491600 1.1319860 0.5818910 2.3717170
207 29.314300 9.4785000 25.615900 4.0611640 2.5293820 5.8183250
208 46.315400 24.865700 30.770700 10.132310 7.7292130 8.3587320
209 13.106800 10.835200 0.0000000 1.0879730 1.2046420 0.2298360
210 29.412000 19.508800 0.0000000 3.8522440 3.6293070 0.3990400
211 37.635200 37.554100 46.099700 12.272140 12.204340 19.377830
212 40.769900 41.090900 67.516600 18.545580 16.388590 43.518930
213 56.284500 47.869900 76.722700 28.564160 24.164230 57.943000
214 100.00000 81.137500 0.0000000 61.663550 64.070470 5.1469580
215 100.00000 84.360900 30.450100 65.246860 68.696930 13.425370
216 100.00000 84.297300 53.286100 68.623740 70.266940 31.234740
217 100.00000 28.928200 0.0000000 40.211640 23.673180 1.1715220
218 100.00000 32.661100 18.492500 41.533240 25.310530 4.4430840
219 100.00000 71.063300 85.919200 69.027450 58.336130 76.410020
220 100.00000 73.524200 100.00000 76.235470 63.677990 106.76100
221 100.00000 87.365400 100.00000 85.565770 81.262700 108.48960
222 0.7645000 0.7645000 0.7645000 0.1357010 0.1318680 0.1980260
223 0.0000000 0.0000000 0.0000000 0.0841914 0.0785225 0.1387220
224 0.0000000 25.808900 48.778000 5.9720540 5.8059320 20.448240
225 0.0000000 38.483700 65.060500 12.051950 12.208290 39.673910
226 100.00000 0.0000000 0.0000000 37.563680 18.868980 0.7042630
227 100.00000 0.0000000 14.153500 37.934650 19.030120 2.6353640
228 100.00000 0.0000000 26.320200 38.677250 19.366730 6.5950030
229 100.00000 0.0000000 40.817200 40.247500 20.075730 14.907790
230 40.843900 16.016800 0.0000000 6.0116490 4.2164260 0.3703830
231 60.289800 22.431100 0.0000000 13.766920 9.0775170 0.6066490
232 59.531400 46.299000 0.0000000 18.602180 18.721150 1.5673390
233 68.520000 45.876100 60.003700 29.201810 23.816670 34.455550
234 0.0000000 2.3364000 0.0000000 0.1349160 0.1754100 0.1482380
235 0.0000000 16.007700 28.658600 2.1936480 2.2755100 6.9125650
236 0.0000000 51.301500 61.228100 15.086540 19.289060 35.388570
237 0.0000000 54.449500 79.610400 21.500250 24.038330 62.810440
238 64.069900 58.056700 100.00000 44.877310 37.442900 104.97810
239 31.015600 0.0000000 81.163800 14.885540 6.8861850 63.700330
240 45.061100 0.0000000 100.00000 25.530240 11.703140 102.72160
241 56.405700 26.992000 100.00000 32.155740 18.352300 103.24060
242 80.305900 100.00000 100.00000 80.257350 91.972910 110.12070
243 100.00000 100.00000 100.00000 95.066170 99.398020 110.38110
244 52.010600 30.611800 0.0000000 11.639410 9.7517330 0.7885090
245 76.307300 42.852800 0.0000000 26.100380 20.913990 1.4876710
246 100.00000 64.096400 0.0000000 51.390510 44.735160 3.2448800
247 100.00000 69.956300 43.630300 57.671940 52.199140 20.044600
248 0.0000000 13.157900 0.0000000 0.7112210 1.2642400 0.2548930
249 0.0000000 23.395900 23.350200 2.7263710 3.7927550 5.1175010
250 0.0000000 26.505000 34.684000 4.1444340 5.1503500 10.113850
251 6.7558000 45.458800 50.113600 10.994560 14.596270 22.897190
252 31.032300 74.433400 49.310000 26.630800 40.470140 24.803530
253 33.464900 100.00000 45.432900 44.693500 75.066430 25.048660
254 33.496400 100.00000 62.776400 48.150530 76.625680 43.448970
255 36.295700 100.00000 78.272500 53.244800 78.935950 66.421220
256 60.078300 100.00000 91.548400 65.871570 85.048780 90.723490
257 89.622600 0.0000000 0.0000000 28.967970 14.559100 0.5721650
258 100.00000 0.0000000 53.709400 42.454050 21.074580 26.832470
259 100.00000 29.344500 68.903500 48.796320 27.794400 46.028710
260 1.5432000 1.5432000 1.5432000 0.1734490 0.1734570 0.2351740
261 2.3364000 2.3364000 2.3364000 0.2167380 0.2158700 0.2918450
262 0.0000000 16.304300 0.0000000 0.9742570 1.7622480 0.3039710
263 17.918200 21.591700 0.0000000 2.5762080 3.4034520 0.4308680
264 23.692600 35.583000 0.0000000 5.5651400 8.1073360 0.8709250
265 24.943000 46.109600 42.731400 11.868050 15.402810 16.757810
266 22.053000 68.914100 53.755700 22.969420 34.194720 28.955770
267 100.00000 47.198700 0.0000000 44.669020 32.094710 2.0021490
268 100.00000 52.741900 21.546000 47.503510 36.337970 6.5122390
269 100.00000 61.356700 48.774000 54.194780 44.479970 23.670640
270 100.00000 63.216700 66.005000 58.900640 47.952580 43.800590
271 100.00000 77.572800 81.067500 71.528390 65.420320 68.578720
272 4.8077000 0.0000000 0.0000000 0.1950880 0.1342680 0.1403550
273 7.4257000 0.0000000 0.0000000 0.3089470 0.1911940 0.1419780
274 10.204100 0.0000000 0.0000000 0.4467000 0.2602880 0.1439940
275 0.0000000 4.8077000 0.0000000 0.2068580 0.3114430 0.1612760
276 0.0000000 7.4257000 0.0000000 0.3194510 0.5236590 0.1822450
277 0.0000000 10.204100 0.0000000 0.4701840 0.8086340 0.2105390
278 0.0000000 39.438000 79.411000 16.392110 14.592130 61.130710
279 0.0000000 62.568200 100.00000 32.864340 34.102160 104.96660
280 0.0000000 73.441800 100.00000 38.458830 44.689030 105.97320
281 32.727500 76.470100 100.00000 43.630260 49.974300 106.55180
282 71.092200 0.0000000 16.120300 17.788010 8.9224620 2.7908740
283 80.440100 0.0000000 32.102900 24.136390 12.058910 9.1071730
284 100.00000 25.987400 44.919100 43.111080 24.425670 18.776100
285 45.412000 0.0000000 13.673400 6.6705950 3.3628680 2.0057270
286 59.870700 0.0000000 25.701900 12.876920 6.4376320 5.9352650
287 74.719800 0.0000000 100.00000 38.766010 18.337000 102.83480
288 81.060800 30.473200 100.00000 45.518610 25.838530 103.42900
289 0.0000000 89.622600 0.0000000 29.977790 56.576080 5.7218610
290 0.0000000 100.00000 0.0000000 37.876540 71.760590 7.2894520
291 0.0000000 100.00000 27.928200 39.059430 72.300450 13.547490
292 82.625900 100.00000 47.296200 66.167890 85.780340 27.172410
293 32.713400 76.829100 0.0000000 24.215960 41.222250 4.0846300
294 57.123900 82.695800 0.0000000 35.910700 52.646460 4.9489200
295 74.052300 100.00000 0.0000000 57.351940 81.484600 7.5854170
296 82.620800 100.00000 25.454200 63.468400 84.504510 13.286140
297 0.0000000 42.728100 17.559700 6.3083070 11.105940 3.8908910
298 73.283000 48.039000 53.750300 31.076200 25.635040 27.758260
299 100.00000 52.726900 69.967300 55.475340 40.053800 48.357960
300 100.00000 87.146900 70.937300 74.761490 75.906810 53.563670
301 28.969000 21.395500 15.475300 4.5817540 4.4366410 2.5723930
302 81.844600 25.306400 21.327100 26.595120 16.174430 4.9516110
303 84.338700 27.213600 41.969000 30.375040 18.345620 15.859860
304 84.183700 73.989700 58.709000 50.723060 52.121480 35.603190
305 22.332000 38.870500 22.738400 7.1799480 10.124290 5.4965850
306 33.525600 49.562200 29.724300 12.660210 17.226120 8.9849540
307 41.483200 70.424400 32.910600 24.408770 36.091570 12.384530
308 71.335300 81.344400 61.165500 48.446520 57.340970 39.154210
309 51.087800 72.662600 50.569400 30.935790 40.698640 25.806180
310 71.810300 72.839500 50.355200 40.733990 45.899120 25.662990
311 83.718700 73.493200 70.583700 52.555200 52.259070 50.947270
312 94.467700 82.420700 74.789700 68.203280 68.244530 58.948890
313 100.00000 89.541000 86.385100 81.384670 81.477460 79.531620
314 8.7678000 7.4131000 18.410100 1.1864860 0.9376080 3.2168350
315 10.689300 11.774000 28.091100 2.2101290 1.7704200 6.7789550
316 16.247700 17.026400 40.682100 4.5121550 3.5089500 14.226250
317 29.109800 23.581200 52.907900 9.1319330 6.8329230 25.439710
318 42.444100 32.245400 54.919900 13.962670 11.203620 27.971220
319 45.687300 36.485100 82.943300 23.493320 16.909890 68.457480
320 13.619800 69.459800 64.524800 24.708090 35.219620 41.760360
321 37.184300 73.497500 67.638200 31.231250 41.583200 46.047740
322 27.500000 54.205200 0.0000000 11.897970 19.191980 1.9433560
323 70.714700 76.762000 13.276100 38.798660 48.647830 5.9967200
324 82.257700 90.629500 12.925000 55.103440 70.032850 7.8879290
325 20.132800 71.025400 33.626800 20.554680 34.431920 12.722420
326 18.203800 85.148500 77.309300 38.349190 55.541870 61.897420
327 60.472200 90.350400 100.00000 62.116250 72.240210 108.44910
328 16.809800 12.749000 69.341500 10.055770 5.5107600 45.197980
329 18.426200 29.718100 77.928600 14.904360 10.772730 58.935280
330 88.347500 34.862900 84.710400 45.281010 27.299580 72.005110
331 14.793400 84.622100 41.441100 29.761730 51.162770 19.425590
332 17.515000 87.307500 54.688300 34.379830 56.241640 32.009640
333 14.217000 87.701500 65.577300 36.754980 57.726590 45.031310
334 33.683000 23.306900 31.627700 6.7628360 5.7095580 8.8394130
335 37.420900 26.470800 42.479800 9.3423100 7.7028590 15.694890
336 41.650100 48.610300 54.573900 18.116820 19.482360 28.335190
337 42.002000 49.835700 67.144600 21.474900 21.577310 43.535420
338 43.040000 58.828100 67.625300 25.639750 28.783330 44.753600
339 46.420500 62.441200 84.786100 33.323980 34.371620 73.325220
340 47.942200 73.355900 87.547600 40.605090 45.998940 79.344510
341 65.541800 91.379000 93.313600 62.474840 73.798980 93.695390
342 0.0000000 0.0000000 0.0000000 0.0841607 0.0785354 0.1386980
343 21.045500 10.972900 8.5366000 2.0609070 1.6959790 1.0220760
344 32.494100 34.437600 11.406300 7.0808290 8.5938580 2.1230280
345 40.046600 50.531400 14.843200 13.629650 18.299710 3.8652430
346 46.716600 59.672100 36.167700 20.967930 27.143540 13.214620
347 58.333500 85.776600 42.815200 41.325430 58.153390 20.753200
348 65.252300 87.696700 58.063800 48.915770 63.893880 36.579480
349 100.00000 100.00000 100.00000 94.943630 99.207240 110.37950
350 14.090500 59.471700 17.574800 13.244060 23.286030 5.1266470
351 42.051700 69.644400 16.983300 22.867990 34.775040 5.9724840
352 49.658100 84.518400 17.656200 34.765620 53.721950 7.9273080
353 68.444500 90.385000 28.602700 47.888150 66.008660 12.877490
354 16.130600 15.848800 57.354400 7.3482000 4.5891480 30.039870
355 17.393900 20.390700 87.969200 16.796180 9.6203990 76.750080
356 21.667900 44.094100 92.268800 23.835850 19.860800 86.240180
357 0.0000000 78.008800 78.097600 32.932480 46.423960 62.098030
358 65.149500 88.415000 82.551700 55.998710 67.562390 72.483190
359 11.903200 18.190300 6.6130000 1.7063580 2.3503790 0.8634130
360 21.877900 19.586000 7.8931000 2.9556430 3.2004850 1.0489440
361 26.586000 28.837500 16.730700 5.3366550 6.2475140 3.2764200
362 48.931300 37.195000 46.289300 15.426400 13.524580 19.449270
363 53.785400 49.239200 57.159800 22.896130 22.209400 31.680800
364 51.570600 13.873000 23.385200 10.197430 5.9957640 5.1976310
365 61.142800 26.148900 31.288700 16.136110 11.079820 8.9233840
366 100.00000 35.399900 58.340800 47.351850 28.803950 32.569170
367 100.00000 51.720800 84.084200 59.563040 41.473080 71.609720
368 65.258600 14.984300 11.905800 15.328710 8.7701370 1.8674310
369 72.756700 26.192400 11.533700 20.864450 13.476670 2.0973310
370 79.142800 25.861600 0.0000000 24.239960 15.041780 0.8525990
371 87.492600 44.783300 67.317700 41.955660 29.627200 44.287060
372 63.657200 16.069100 75.377700 24.602990 13.076540 53.974380
373 71.150000 31.116000 75.716100 30.716470 19.044630 55.143590
374 75.920700 49.325700 76.177100 38.526380 29.844520 56.839410
375 92.375900 59.544600 83.467700 56.327310 44.452710 71.270520
376 26.859000 42.927400 13.610900 8.3247580 12.101720 2.9962950
377 28.497200 53.479000 15.158000 12.316090 19.121500 4.0223780
378 30.508400 61.492100 35.779600 17.616620 26.424960 13.000470
379 59.844800 70.243600 41.254400 31.841220 39.494680 17.792610
380 72.171200 83.896400 43.499300 46.799480 58.904020 21.218310
381 85.345800 89.887600 58.199000 62.199230 72.559970 37.163380
382 79.512700 60.505700 0.0000000 34.736460 34.356640 2.7457450
383 89.055500 69.774300 36.486800 47.470510 47.051750 14.801690
384 93.524900 71.300400 53.126900 54.454900 51.590370 29.119650
385 62.349300 11.541200 36.766800 15.630250 8.4540650 11.909070
386 68.036200 16.003400 48.587000 20.583760 11.374500 20.959990
387 83.917000 17.429600 52.336500 30.387900 16.462370 24.617750
388 76.373900 0.0000000 45.233000 23.521330 11.658820 17.993010
389 82.454100 15.542900 72.241400 34.086610 17.804370 49.775190
390 48.216900 0.0000000 52.171300 11.716100 5.6860410 24.011720
391 49.321400 12.863200 63.820100 15.491040 8.3051970 38.061690
392 3.4677000 50.694600 86.887000 22.605470 22.284450 76.199650
393 27.074900 50.584400 86.397900 24.527670 23.253910 74.723960
394 28.098200 64.975100 92.069700 33.230670 36.201560 87.821780
395 0.0000000 39.114800 38.190200 7.1509710 10.198740 12.901130
396 0.0000000 52.730200 37.667500 11.316180 18.147100 13.446290
397 10.360000 62.742300 39.442900 16.192480 26.441480 15.670590
398 41.739800 86.987600 34.257800 35.222640 56.334110 15.041770
399 61.840400 100.00000 41.347100 53.568080 79.379670 21.786140
400 46.312300 43.140200 13.407500 12.882770 14.529400 2.9911710
401 46.820200 49.853600 41.040700 17.591070 19.832630 15.973450
402 19.988000 26.835800 32.832900 5.2586650 5.7104090 9.4842240
403 26.483500 28.389000 40.879200 7.4404120 7.1254420 14.589770
404 28.856800 38.916900 40.749300 10.031250 11.496630 15.002240
405 56.674200 61.664100 49.322000 27.443730 31.284330 23.761160
406 57.228100 69.841500 59.761100 33.907530 40.131640 35.760400
407 60.882200 75.828200 71.271400 41.975500 48.914920 52.068650
408 0.0000000 38.288400 51.781000 9.0557790 10.807080 23.888210
409 0.0000000 37.506100 100.00000 23.935710 17.241310 103.33820
410 36.870600 25.989200 84.887400 19.605590 12.163620 71.205340
411 46.986200 51.427000 86.320100 29.493740 26.161830 74.921670
412 74.577500 64.367400 92.728600 49.878900 43.780710 88.962630
413 0.0000000 77.415600 48.547600 25.204760 42.102810 24.041400
414 34.547400 83.940100 67.435800 37.373450 53.966990 47.295740
415 50.849600 88.000000 76.912800 47.680310 63.036660 61.831500
416 14.436500 4.6598000 11.224400 1.1294540 0.7650420 1.4300140
417 25.142000 10.257100 15.997400 2.8919620 2.0118670 2.6034410
418 38.883200 10.086900 41.748900 7.7347020 4.3326930 14.786930
419 61.958000 11.554900 60.067400 19.461420 10.180120 33.237100
420 61.463100 41.262000 65.174500 25.414560 19.840430 40.612960
421 66.094300 54.837400 66.008000 32.720820 30.008690 42.585610
422 85.532500 66.868200 71.244400 50.850060 46.635490 51.467010
423 92.003400 79.217200 86.490700 67.652120 64.755620 78.846700
424 86.375900 7.0161000 17.753400 27.167290 13.937300 3.3944050
425 94.071300 16.238900 49.651400 37.567390 19.866290 22.423500
426 73.765200 13.286200 36.294400 21.638640 11.668900 11.598510
427 84.000300 35.967300 53.319300 33.754550 22.274340 26.851950
428 88.120100 47.703400 55.194800 40.792570 30.481620 29.761010
429 88.171700 56.966900 66.802500 46.885220 38.240430 44.115850
430 69.646100 44.414000 36.230700 25.185240 21.284270 12.368160
431 84.797800 49.929600 39.507000 36.087690 29.101580 15.340330
432 93.089600 63.462400 58.690300 51.267160 44.394340 34.714410
433 56.427300 54.365800 13.450200 20.593620 23.920000 3.7932370
434 71.391100 57.641900 16.582100 29.417190 30.172800 5.0065870
435 84.561300 58.216700 34.142300 38.744480 35.080840 12.350610
436 37.220800 32.638000 23.612900 8.3805300 8.6821360 5.5940810
437 39.614000 43.677400 27.841100 12.039700 14.243730 7.7579300
438 61.170200 47.273000 34.578400 21.547420 20.771780 11.538190
439 61.330000 50.835700 46.801800 24.466380 23.845870 20.682980
440 77.739400 58.432000 46.968000 36.383540 34.071140 21.749500
441 83.125300 64.530300 61.309700 45.091680 42.036550 37.535840
442 88.639300 72.582900 11.335900 46.624490 48.577740 5.2334550
443 88.242200 93.487200 38.388800 63.186310 76.699040 19.234390
444 10.691200 23.529400 38.544700 4.5661960 4.6565870 12.780150
445 16.620300 25.804600 50.057100 7.1885210 6.3872000 22.186590
446 30.858500 35.768600 55.943200 12.275920 11.363580 29.400660
447 87.351700 16.446200 29.936400 29.731770 16.138540 8.1939150
448 87.550300 39.249600 31.693800 33.871800 23.612570 9.9158060
449 84.192700 36.601600 39.217000 31.775540 21.514620 14.335890
450 100.00000 47.033000 49.792600 48.860480 34.218150 23.725720
451 52.576100 18.025700 10.075900 10.228590 6.6196520 1.5656580
452 71.631900 47.906200 13.368300 25.674540 23.021530 3.4537050
453 87.450400 48.710100 26.783000 36.214570 28.665960 7.9744690
454 100.00000 48.579200 33.588100 47.027640 34.072230 11.685720
455 48.930000 43.087800 58.613400 19.387650 17.622520 32.181640
456 50.821500 63.327000 62.951400 28.869340 32.876820 39.478940
457 58.607800 66.616000 73.980300 36.496800 39.131350 55.282360
458 29.132400 58.675000 55.440400 19.583910 25.831590 29.888660
459 39.545900 66.320800 68.643900 28.337360 34.845050 47.001600
460 42.134700 80.106000 89.507200 43.888830 53.481220 84.351740
461 13.066000 51.419600 43.680600 12.227280 17.952720 17.575870
462 27.108100 51.040300 56.224600 16.195720 19.639630 30.204310
463 14.928300 36.810800 40.781100 7.6178800 9.5134700 14.815360
464 16.317800 37.765100 57.546900 11.141340 11.524400 31.227500
465 12.647600 30.026300 63.974100 10.543920 8.8740860 38.172890
466 28.137900 39.131600 75.194500 17.444790 15.024070 54.452420
467 71.517600 69.507700 83.382300 47.482980 46.371900 71.834350
468 86.161400 76.425600 91.687500 63.450180 60.062530 88.675940
469 87.757000 87.501500 94.406700 73.229730 75.078840 95.902580
470 2.3364000 0.0000000 0.0000000 0.1363150 0.1046760 0.1395420
471 10.713600 17.679200 23.108500 2.3535330 2.5722860 4.9149340
472 21.654100 19.177700 29.772700 4.1402370 3.7541970 7.7208290
473 41.321200 20.227300 36.612100 8.6894450 6.1626820 11.438290
474 47.982200 42.132100 36.072300 14.809830 15.019400 12.033660
475 47.822600 40.595400 25.294700 13.533240 13.967540 6.8279870
476 51.325800 64.262700 24.776800 23.528680 31.131600 8.1346730
477 59.299100 76.015200 20.454800 32.937990 44.978020 7.8340180
478 86.249700 84.764000 65.779700 60.457990 66.289630 45.870710
479 13.624900 31.477700 10.839400 3.9493120 6.1453530 1.9613490
480 29.580200 35.205400 27.366200 7.6479180 9.0943560 7.1394460
481 53.519200 54.160200 31.776600 20.410750 23.583450 10.449340
482 61.455200 56.531600 42.398400 26.217440 27.833030 17.453660
483 68.517200 62.199700 53.915800 34.222900 35.136780 28.781010
484 84.542900 84.905900 74.899800 62.298170 67.500920 59.082290
485 11.324400 20.771600 15.631100 2.3476720 3.1372750 2.6256850
486 16.106600 28.410900 17.412400 3.9094050 5.4406340 3.2365870
487 59.232600 31.162200 84.719800 27.905120 17.481420 71.553030
488 68.409900 48.269000 85.840100 37.159730 28.467380 74.104350
489 84.971700 59.801400 100.00000 57.451770 44.669420 105.29800
490 18.070000 5.9437000 26.866000 2.3970630 1.4262660 6.2404580
491 26.333400 47.569400 71.893600 18.623440 19.025310 49.891070
492 26.388200 64.326200 74.649300 26.206250 32.156070 55.464350
493 26.216700 75.098700 77.858700 33.385030 44.140460 62.239350
494 63.887300 67.174800 20.371700 30.113430 36.492310 6.9176850
495 83.146900 70.465400 24.731400 42.570430 45.164350 9.0096650
496 100.00000 70.047400 25.360000 55.713020 51.451450 9.5858070
497 100.00000 75.024300 64.157100 64.832030 59.726410 42.952570
498 53.990900 34.047100 24.921400 14.045270 11.954180 6.3808480
499 68.554100 47.073500 25.531200 24.314420 22.001660 7.3430250
500 77.637900 66.633300 44.162000 39.695590 40.980580 19.951020
501 33.590000 88.837800 9.1220000 33.054720 57.277240 6.5256670
502 42.699300 85.765800 48.464500 36.708300 55.735300 25.608810
503 47.397200 86.765600 61.860600 41.520610 58.839510 40.618720
504 66.823900 88.174700 69.602800 52.752030 66.045370 50.963430
505 76.799300 88.628600 78.154800 61.005150 70.460890 64.388440
506 16.633900 51.179600 32.348800 11.167150 17.458270 10.257020
507 81.915800 80.175200 33.122200 48.731700 56.444450 13.885520
508 88.329700 83.172300 47.372900 57.009450 63.171330 24.793850
509 0.0000000 12.356700 11.592100 0.8964590 1.2537590 1.5659700
510 0.0000000 24.542000 13.140000 2.2992570 3.8402000 2.1123300
511 13.022300 37.825200 30.375100 6.4912070 9.3537110 8.4695510
512 32.232800 45.364000 36.042000 11.810040 15.043030 12.139000
513 41.540500 53.692000 49.839000 18.996630 22.580560 23.357320
514 70.089400 57.170500 59.236500 34.183990 32.164970 34.341380
515 76.138200 68.599000 76.503400 47.090400 45.724040 59.141830
516 54.858000 45.838600 98.294100 35.268090 26.230020 100.02770
517 14.427400 8.5149000 43.500000 4.0680490 2.3623830 16.051970
518 57.435800 30.921300 43.990100 16.820410 12.402420 17.134620
519 0.0000000 0.0000000 0.0000000 0.0839882 0.0783037 0.1386190
520 32.249800 5.7776000 11.991000 3.5483090 2.0449980 1.6679800
521 36.951500 16.370500 17.607100 5.5631050 4.0548170 3.1435830
522 36.614100 12.987600 8.0381000 4.8440110 3.2891800 0.9749730
523 36.842200 21.516100 10.893200 5.8929180 5.0932820 1.7501470
524 51.153600 27.869000 11.330800 11.041350 8.9076310 1.9879660
525 55.716700 40.627200 14.303500 15.662890 15.040200 3.1475270
526 71.901200 37.722000 11.427900 22.651070 17.466740 2.5078950
527 89.344200 39.418200 13.830600 34.004630 23.825400 3.2782880
528 88.527600 55.665300 15.971000 38.870640 33.737680 4.8822350
529 37.220400 13.409800 24.105500 5.7888600 3.7824630 5.2661520
530 47.336300 12.915500 38.338900 10.038640 5.7893020 12.815440
531 68.695600 29.784800 42.329700 21.716010 14.560020 16.073550
532 71.417600 35.226700 54.688600 26.671120 18.470070 27.978110
533 17.367700 88.357600 27.880400 31.022030 55.415490 11.937250
534 18.418900 89.139900 89.660400 45.789960 63.010880 86.265480
535 34.375000 89.287900 100.00000 52.796230 66.651320 108.20480
536 0.0000000 100.00000 84.992400 51.162380 77.535270 78.334350
537 30.139500 100.00000 91.048100 56.295720 79.941780 90.553400
538 49.336100 20.686700 19.445100 9.8321770 6.8839500 3.9049880
539 68.873000 39.793700 41.053000 24.005150 18.762610 15.645760
540 41.722500 20.761100 54.113300 11.775660 7.6665470 26.819240
541 65.144000 24.573500 56.929900 21.831110 13.402260 30.266370
542 76.778000 37.694200 69.551600 33.667860 22.702570 46.530000
543 88.398100 53.004400 89.059300 52.362110 38.404470 81.384810
544 0.0000000 9.9216000 17.527200 0.9585660 0.9985220 2.9037800
545 15.488300 32.691000 43.852300 7.1654720 7.9885100 16.884070
546 28.296700 43.641700 54.776400 13.604100 14.884600 28.413690
547 44.621300 70.658600 58.856500 29.577840 38.470120 34.764620
548 74.437300 87.095800 88.105900 62.177070 69.203810 83.022130
549 76.237900 100.00000 87.797200 72.639370 88.247640 84.136320
550 12.542100 60.708600 64.915300 20.605500 27.457860 41.560410
551 15.030100 64.810000 84.171300 28.250860 33.293030 72.537070
552 18.746600 77.274800 89.617500 37.860440 47.911240 84.809110
553 15.430200 29.198900 26.618100 4.5561650 5.8307010 6.5037690
554 42.544600 32.299800 34.226200 10.615590 9.6566210 10.442370
555 56.060000 37.376000 36.636900 16.615800 14.166200 12.118020
556 58.699800 44.129800 48.168800 21.528770 19.391310 21.583220
557 80.885500 51.305700 49.175200 35.550200 29.606390 22.962580
558 45.169300 14.837600 84.904400 20.580660 10.745660 71.852880
559 61.306600 11.659500 90.108200 28.233150 14.078540 82.057100
560 79.656300 40.624800 90.848700 43.473190 28.359100 84.829480
561 57.004400 57.506100 70.006900 30.637850 30.513340 48.671210
562 57.990900 77.382400 81.399500 44.696820 51.493100 68.751310
563 70.991700 80.130900 87.686000 55.348770 59.237440 81.295540
564 56.682800 8.7958000 15.626900 11.288180 6.0992230 2.6120780
565 70.421700 16.389900 26.465800 19.257240 10.893940 6.3821180
566 75.111300 15.069200 88.106400 35.240420 18.025940 77.973160
567 89.468000 12.811700 89.149600 44.244930 22.284700 79.851220
568 51.094800 19.407200 49.896500 13.646600 8.3927490 21.942350
569 52.776200 32.781200 51.481700 16.661660 12.796200 23.876770
570 36.961300 14.557100 69.647400 13.469110 7.3762710 45.992080
571 50.056200 34.297900 70.720200 20.530750 14.870000 47.766340
572 69.067000 56.632500 76.921000 37.781150 33.321130 58.780110
573 85.244400 66.000600 87.984200 55.398810 47.882400 79.883790
574 73.154300 0.0000000 58.912500 24.409380 11.984130 31.857480
575 85.245100 11.907400 61.155900 32.739530 16.818340 35.033060
576 87.883800 32.911600 68.744200 39.441480 24.036360 45.411120
577 18.591000 48.083000 19.626400 9.2408570 14.960540 4.8970970
578 35.756300 57.727600 44.994400 18.430960 24.583480 19.721530
579 21.019800 11.030400 21.437800 2.6707230 1.9742680 4.2596730
580 30.298800 10.354700 47.821200 6.8921910 3.8653190 19.934210
581 29.635500 16.879700 100.00000 23.020540 11.823550 102.85280
582 54.592200 68.291400 100.00000 45.218290 44.081160 105.77330
583 14.782000 49.368200 64.469500 15.917960 18.616450 39.698080
584 81.445400 100.00000 64.055900 68.643250 86.624460 45.543190
585 81.502000 82.070300 0.0000000 47.937350 57.774290 5.0337600
586 92.316200 84.958900 16.209700 57.791990 65.538830 7.9594780
587 88.937800 17.178000 11.905700 29.647740 16.262570 2.1344240
588 100.00000 27.956800 31.161000 41.524150 24.154710 9.2865510
END_DATA
CAL    

DESCRIPTOR "Argyll Device Calibration State"
ORIGINATOR "Argyll dispread"
CREATED "Tue May 26 13:42:26 2020"
DEVICE_CLASS "DISPLAY"
COLOR_REP "RGB"

BEGIN_ARGYLL_DISPCAL_ARGS
-v2 -ql -m -w0.3127,0.329 -gs -f1.0 -k0 -A4.0 -d2 -c1 -yn -P0.475424224693,0.648471615721,2.23653088042 -F -X "Xrite i1 DisplayPro, ColorMunki Display & Dell DELL U2913WM (GretagMacbeth i1 Pro).ccmx"
END_ARGYLL_DISPCAL_ARGS


NUMBER_OF_FIELDS 4
BEGIN_DATA_FORMAT
RGB_I RGB_R RGB_G RGB_B
END_DATA_FORMAT

NUMBER_OF_SETS 256
BEGIN_DATA
0.00000000 0.00000000 0.00000000 0.00000000
0.00392157 0.00640559 0.00867820 0.00808495
0.00784314 0.01259000 0.01689600 0.01581320
0.01176470 0.01856450 0.02468900 0.02320800
0.01568630 0.02433950 0.03208940 0.03029030
0.01960780 0.02992490 0.03912560 0.03707880
0.02352940 0.03532970 0.04581010 0.04357450
0.02745100 0.04055200 0.05218220 0.04980060
0.03137250 0.04561030 0.05826880 0.05579140
0.03529410 0.05053560 0.06408540 0.06154820
0.03921570 0.05535410 0.06964940 0.06707790
0.04313730 0.06008020 0.07497910 0.07239730
0.04705880 0.06471470 0.08009300 0.07752900
0.05098040 0.06925780 0.08501660 0.08249740
0.05490200 0.07371690 0.08974260 0.08730210
0.05882350 0.07808740 0.09427920 0.09193750
0.06274510 0.08235570 0.09865000 0.09641320
0.06666670 0.08652450 0.10286500 0.10073300
0.07058820 0.09059290 0.10693600 0.10490800
0.07450980 0.09455780 0.11086600 0.10894200
0.07843140 0.09841400 0.11467100 0.11284600
0.08235290 0.10215900 0.11837300 0.11663900
0.08627450 0.10578900 0.12197500 0.12032700
0.09019610 0.10930500 0.12548200 0.12391400
0.09411760 0.11271300 0.12891800 0.12742100
0.09803920 0.11602300 0.13229400 0.13086200
0.10196100 0.11924700 0.13561100 0.13423800
0.10588200 0.12238900 0.13886900 0.13755500
0.10980400 0.12545600 0.14207400 0.14081700
0.11372500 0.12845400 0.14524900 0.14404900
0.11764700 0.13140000 0.14840300 0.14725800
0.12156900 0.13430200 0.15153800 0.15044400
0.12549000 0.13716500 0.15465300 0.15360600
0.12941200 0.13999100 0.15774500 0.15674300
0.13333300 0.14278300 0.16081200 0.15985500
0.13725500 0.14554400 0.16386200 0.16295400
0.14117600 0.14827700 0.16691600 0.16605800
0.14509800 0.15099900 0.16997900 0.16916700
0.14902000 0.15372500 0.17305300 0.17228100
0.15294100 0.15645400 0.17613600 0.17539900
0.15686300 0.15918400 0.17922700 0.17851800
0.16078400 0.16191400 0.18232500 0.18163600
0.16470600 0.16464200 0.18542200 0.18474400
0.16862700 0.16736400 0.18851300 0.18784200
0.17254900 0.17008100 0.19159500 0.19093000
0.17647100 0.17279200 0.19468300 0.19402700
0.18039200 0.17549900 0.19779700 0.19714000
0.18431400 0.17822000 0.20093800 0.20026900
0.18823500 0.18095800 0.20410600 0.20341600
0.19215700 0.18370800 0.20730100 0.20658100
0.19607800 0.18647000 0.21052700 0.20976600
0.20000000 0.18924700 0.21378800 0.21297400
0.20392200 0.19203500 0.21708100 0.21620600
0.20784300 0.19483400 0.22040500 0.21946500
0.21176500 0.19764500 0.22376300 0.22275100
0.21568600 0.20046800 0.22714300 0.22606100
0.21960800 0.20330200 0.23054300 0.22940100
0.22352900 0.20614700 0.23396700 0.23277200
0.22745100 0.20900600 0.23742200 0.23618200
0.23137300 0.21188000 0.24092100 0.23965400
0.23529400 0.21477200 0.24447700 0.24320100
0.23921600 0.21769800 0.24808900 0.24682400
0.24313700 0.22066500 0.25175500 0.25050400
0.24705900 0.22367500 0.25545100 0.25421400
0.25098000 0.22671700 0.25915800 0.25795300
0.25490200 0.22977900 0.26287400 0.26171800
0.25882400 0.23286100 0.26659800 0.26550900
0.26274500 0.23596200 0.27032800 0.26932600
0.26666700 0.23908100 0.27406200 0.27317000
0.27058800 0.24222100 0.27780500 0.27704200
0.27451000 0.24538000 0.28156700 0.28093500
0.27843100 0.24856000 0.28534500 0.28484500
0.28235300 0.25176700 0.28914100 0.28875600
0.28627500 0.25500500 0.29294700 0.29265300
0.29019600 0.25827200 0.29675000 0.29653900
0.29411800 0.26155700 0.30055300 0.30041800
0.29803900 0.26485900 0.30436200 0.30429300
0.30196100 0.26818000 0.30818200 0.30816100
0.30588200 0.27151900 0.31201000 0.31202200
0.30980400 0.27487400 0.31583800 0.31587700
0.31372500 0.27824900 0.31966400 0.31973100
0.31764700 0.28164500 0.32348900 0.32359800
0.32156900 0.28506300 0.32732600 0.32747900
0.32549000 0.28850500 0.33117900 0.33138100
0.32941200 0.29198100 0.33505300 0.33532100
0.33333300 0.29549200 0.33897100 0.33927300
0.33725500 0.29903900 0.34291200 0.34323300
0.34117600 0.30261900 0.34686800 0.34719900
0.34509800 0.30621100 0.35084200 0.35116800
0.34902000 0.30981100 0.35483200 0.35514100
0.35294100 0.31342200 0.35883400 0.35912000
0.35686300 0.31704100 0.36284500 0.36309800
0.36078400 0.32066900 0.36686000 0.36706700
0.36470600 0.32430600 0.37086300 0.37103300
0.36862700 0.32794800 0.37486200 0.37502300
0.37254900 0.33159200 0.37888000 0.37904300
0.37647100 0.33524300 0.38293300 0.38309200
0.38039200 0.33890900 0.38701700 0.38717300
0.38431400 0.34259800 0.39114000 0.39127800
0.38823500 0.34630300 0.39530100 0.39540700
0.39215700 0.35002700 0.39949900 0.39956500
0.39607800 0.35377800 0.40373400 0.40373000
0.40000000 0.35755800 0.40798200 0.40788200
0.40392200 0.36136600 0.41220500 0.41202200
0.40784300 0.36517900 0.41640300 0.41614000
0.41176500 0.36897400 0.42057700 0.42022600
0.41568600 0.37275500 0.42471400 0.42428800
0.41960800 0.37651900 0.42881300 0.42835900
0.42352900 0.38025400 0.43290600 0.43244100
0.42745100 0.38395600 0.43700800 0.43653400
0.43137300 0.38764600 0.44112200 0.44063600
0.43529400 0.39133500 0.44524500 0.44474200
0.43921600 0.39502400 0.44937200 0.44884800
0.44313700 0.39871600 0.45348200 0.45295200
0.44705900 0.40240800 0.45757400 0.45705800
0.45098000 0.40610000 0.46166000 0.46116700
0.45490200 0.40979400 0.46574100 0.46527400
0.45882400 0.41349200 0.46981200 0.46938000
0.46274500 0.41719800 0.47386800 0.47348600
0.46666700 0.42090700 0.47791100 0.47759000
0.47058800 0.42461400 0.48194100 0.48169500
0.47451000 0.42832000 0.48595800 0.48579800
0.47843100 0.43202600 0.48996400 0.48990000
0.48235300 0.43573100 0.49396000 0.49400900
0.48627500 0.43943700 0.49794600 0.49815400
0.49019600 0.44314400 0.50193700 0.50230400
0.49411800 0.44685500 0.50595600 0.50644000
0.49803900 0.45059000 0.50998500 0.51056100
0.50196100 0.45434500 0.51400100 0.51466900
0.50588200 0.45809500 0.51800600 0.51876300
0.50980400 0.46183700 0.52199600 0.52284400
0.51372500 0.46557100 0.52597100 0.52691000
0.51764700 0.46929500 0.52993000 0.53096200
0.52156900 0.47301000 0.53387400 0.53499700
0.52549000 0.47671400 0.53780000 0.53902200
0.52941200 0.48040800 0.54170400 0.54303400
0.53333300 0.48409200 0.54559400 0.54702400
0.53725500 0.48776900 0.54946900 0.55099300
0.54117600 0.49143500 0.55331500 0.55495700
0.54509800 0.49508700 0.55713400 0.55892300
0.54902000 0.49873000 0.56094400 0.56289500
0.55294100 0.50235900 0.56475500 0.56687200
0.55686300 0.50597100 0.56856900 0.57082900
0.56078400 0.50957300 0.57238900 0.57475400
0.56470600 0.51316900 0.57621300 0.57864600
0.56862700 0.51674800 0.58002200 0.58249200
0.57254900 0.52030200 0.58381500 0.58629500
0.57647100 0.52383300 0.58758700 0.59006100
0.58039200 0.52732800 0.59132500 0.59380500
0.58431400 0.53078500 0.59502800 0.59755300
0.58823500 0.53420700 0.59870000 0.60130900
0.59215700 0.53759800 0.60236600 0.60506600
0.59607800 0.54098400 0.60605000 0.60882000
0.60000000 0.54436400 0.60975100 0.61256400
0.60392200 0.54773800 0.61346700 0.61630100
0.60784300 0.55110500 0.61719400 0.62004200
0.61176500 0.55447100 0.62092600 0.62380700
0.61568600 0.55784000 0.62466200 0.62759600
0.61960800 0.56121600 0.62841700 0.63140700
0.62352900 0.56460800 0.63221400 0.63524300
0.62745100 0.56801800 0.63605200 0.63910900
0.63137300 0.57144400 0.63993500 0.64300900
0.63529400 0.57488600 0.64387300 0.64694000
0.63921600 0.57834600 0.64787000 0.65090000
0.64313700 0.58182200 0.65192400 0.65489100
0.64705900 0.58532000 0.65603500 0.65891200
0.65098000 0.58884200 0.66020200 0.66294200
0.65490200 0.59238600 0.66442400 0.66693900
0.65882400 0.59595100 0.66869700 0.67090200
0.66274500 0.59953000 0.67296100 0.67482700
0.66666700 0.60309500 0.67718200 0.67871600
0.67058800 0.60664100 0.68136300 0.68257000
0.67451000 0.61016700 0.68550000 0.68639500
0.67843100 0.61367400 0.68960000 0.69019400
0.68235300 0.61717100 0.69366400 0.69396600
0.68627500 0.62066200 0.69770300 0.69771500
0.69019600 0.62415200 0.70172300 0.70143800
0.69411800 0.62764000 0.70572700 0.70514300
0.69803900 0.63112000 0.70971700 0.70885100
0.70196100 0.63458900 0.71369400 0.71257900
0.70588200 0.63804600 0.71767100 0.71632600
0.70980400 0.64150300 0.72168100 0.72008700
0.71372500 0.64497600 0.72572400 0.72385200
0.71764700 0.64846600 0.72979400 0.72762000
0.72156900 0.65197500 0.73387100 0.73138900
0.72549000 0.65549600 0.73795000 0.73516200
0.72941200 0.65902200 0.74202800 0.73894100
0.73333300 0.66254500 0.74610800 0.74273800
0.73725500 0.66606600 0.75019300 0.74653400
0.74117600 0.66958600 0.75429600 0.75031400
0.74509800 0.67312500 0.75837900 0.75407700
0.74902000 0.67666600 0.76243800 0.75781900
0.75294100 0.68020600 0.76647400 0.76153500
0.75686300 0.68374600 0.77049000 0.76522300
0.76078400 0.68728500 0.77448500 0.76888600
0.76470600 0.69082600 0.77845600 0.77253300
0.76862700 0.69437500 0.78240900 0.77617300
0.77254900 0.69793200 0.78636700 0.77980900
0.77647100 0.70149000 0.79032900 0.78344300
0.78039200 0.70504600 0.79429300 0.78708100
0.78431400 0.70859700 0.79826300 0.79072300
0.78823500 0.71214800 0.80223700 0.79436900
0.79215700 0.71569700 0.80620200 0.79799500
0.79607800 0.71924100 0.81011800 0.80159800
0.80000000 0.72275200 0.81398200 0.80518100
0.80392200 0.72621900 0.81779600 0.80874900
0.80784300 0.72964600 0.82156300 0.81230400
0.81176500 0.73303800 0.82529400 0.81584600
0.81568600 0.73639700 0.82899100 0.81937600
0.81960800 0.73972300 0.83265700 0.82289500
0.82352900 0.74301800 0.83630400 0.82642500
0.82745100 0.74628500 0.83996600 0.82997500
0.83137300 0.74955400 0.84364600 0.83354600
0.83529400 0.75284300 0.84734500 0.83713500
0.83921600 0.75615200 0.85106400 0.84074400
0.84313700 0.75947700 0.85480800 0.84437300
0.84705900 0.76282200 0.85857400 0.84801500
0.85098000 0.76619100 0.86234300 0.85164800
0.85490200 0.76957800 0.86610900 0.85526400
0.85882400 0.77297200 0.86986900 0.85886700
0.86274500 0.77637100 0.87362300 0.86245800
0.86666700 0.77977000 0.87737500 0.86604000
0.87058800 0.78316700 0.88115000 0.86963400
0.87451000 0.78656700 0.88495100 0.87324500
0.87843100 0.78997600 0.88878000 0.87687300
0.88235300 0.79339200 0.89262800 0.88051400
0.88627500 0.79681500 0.89648400 0.88416700
0.89019600 0.80024200 0.90034800 0.88782900
0.89411800 0.80367100 0.90422800 0.89150300
0.89803900 0.80710800 0.90813000 0.89518900
0.90196100 0.81055000 0.91205400 0.89889300
0.90588200 0.81400000 0.91598700 0.90260600
0.90980400 0.81745300 0.91992500 0.90632800
0.91372500 0.82090900 0.92385500 0.91004700
0.91764700 0.82436000 0.92777200 0.91375600
0.92156900 0.82780200 0.93166900 0.91745000
0.92549000 0.83123800 0.93554000 0.92112700
0.92941200 0.83466500 0.93937600 0.92479200
0.93333300 0.83808000 0.94317600 0.92844300
0.93725500 0.84148600 0.94693900 0.93208400
0.94117600 0.84488500 0.95066300 0.93571500
0.94509800 0.84827700 0.95434400 0.93932900
0.94902000 0.85166500 0.95797900 0.94292400
0.95294100 0.85504800 0.96156900 0.94649600
0.95686300 0.85842600 0.96511800 0.95004800
0.96078400 0.86179700 0.96862700 0.95358700
0.96470600 0.86516000 0.97210200 0.95711200
0.96862700 0.86851600 0.97554400 0.96062200
0.97254900 0.87186800 0.97895400 0.96412000
0.97647100 0.87521500 0.98233400 0.96760300
0.98039200 0.87855800 0.98568200 0.97107200
0.98431400 0.88189700 0.98900000 0.97452800
0.98823500 0.88523200 0.99228800 0.97797000
0.99215700 0.88856300 0.99554600 0.98139900
0.99607800 0.89188900 0.99877500 0.98481400
1.00000000 0.89521100 1.00000000 0.98821600
END_DATA
